Timestamp,Acc X,Acc Y,Acc Z,Gyro X,Gyro Y,Gyro Z,Roll Raw,Pitch Raw,Kalman Roll,Kalman Pitch,Complementary Roll,Complementary Pitch,Joystick X,Joystick Y,Joystick Button,Emergency Button
2024-12-12 10:32:48,0.0028,-0.0041,0.9996,0.0303,0.0322,0.294,-0.2324,-0.1623,-0.0493,0.0354,-0.0413,0.0283,13003,13003,1,1
2024-12-12 10:32:48,0.0011,-0.0026,1.0011,-0.1377,-0.1205,0.3246,-0.1482,-0.0643,-0.0412,0.0112,-0.0262,-0.0318,13010,13010,1,1
2024-12-12 10:32:48,-0.0006,0.0047,0.995,0.015,-0.1052,0.004,0.2726,0.0337,-0.045,0.0062,-0.0425,-0.0124,13010,13010,1,1
2024-12-12 10:32:48,-0.0047,0.0028,1.0057,-0.0613,-0.1663,0.2635,0.1585,0.2698,-0.0437,0.017,-0.0448,0.04,13010,13010,1,1
2024-12-12 10:32:48,-0.0013,-0.005,1.0018,-0.0155,-0.2426,-0.0876,-0.2877,0.0754,-0.0594,-0.0039,-0.0943,-0.0172,13010,13003,1,1
2024-12-12 10:32:48,0.0019,0.0001,1.0021,0.1066,-0.0747,0.004,0.0055,-0.1061,-0.0583,-0.019,-0.0804,-0.051,13010,13010,1,1
2024-12-12 10:32:48,-0.0045,-0.0014,0.9999,-0.0461,-0.0136,0.004,-0.0784,0.2574,-0.0626,-0.0142,-0.0763,-0.0158,13010,13010,1,1
2024-12-12 10:32:48,0.0102,0.0033,1.005,0.0608,0.2307,0.0498,0.1864,-0.579,-0.0656,-0.019,-0.0731,-0.0316,13003,13010,1,1
2024-12-12 10:32:48,0.0023,-0.0006,0.997,0.1371,0.0627,0.1566,-0.0366,-0.1347,-0.0444,-0.0255,-0.0147,-0.0283,13010,13010,1,1
2024-12-12 10:32:48,-0.0018,-0.0006,1.0014,0.0455,-0.3953,0.1261,-0.0364,0.1033,-0.0311,-0.029,0.0051,-0.0279,13010,13003,1,1
2024-12-12 10:32:48,-0.0023,-0.0058,0.9906,0.0303,-0.151,0.0803,-0.3333,0.1327,-0.0323,0.0005,-0.0269,0.0492,13010,13010,1,1
2024-12-12 10:32:49,0.0001,-0.0031,1.0045,0.0761,0.1085,0.3704,-0.1755,-0.0084,-0.0229,0.0059,-0.0141,0.0309,13010,13010,1,1
2024-12-12 10:32:49,-0.0042,-0.005,1.0048,-0.0766,0.0016,-0.0876,-0.2869,0.2422,-0.0317,0.0279,-0.0547,0.0891,13010,13010,1,1
2024-12-12 10:32:49,-0.0013,0.0028,1.0104,-0.0308,0.0475,0.065,0.1577,0.0747,-0.017,0.0393,0.0073,0.0836,13003,13010,1,1
2024-12-12 10:32:49,-0.0011,-0.006,1.0048,0.1219,0.0475,0.0345,-0.3426,0.0612,-0.0296,0.0357,-0.046,0.045,13010,13010,1,1
2024-12-12 10:32:49,0.0004,0.0008,0.9913,-0.0155,0.1696,-0.1487,0.0479,-0.0226,-0.0448,0.0386,-0.0785,0.0312,13003,13003,1,1
2024-12-12 10:32:49,0.0041,0.005,1.0014,0.0303,-0.0136,0.1108,0.2849,-0.2319,-0.0278,0.021,-0.0083,-0.0236,13010,13010,1,1
2024-12-12 10:32:49,0.0011,-0.0021,0.9957,-0.1224,-0.1663,-0.1792,-0.1209,-0.0646,-0.0426,0.0268,-0.0589,0.0159,13011,13010,1,1
2024-12-12 10:32:49,-0.0042,0.0001,1.0097,-0.0308,0.0169,0.1108,0.0055,0.241,-0.0578,0.0166,-0.0898,0.0008,13010,13010,1,1
2024-12-12 10:32:49,-0.0001,0.0013,1.0038,-0.0155,0.1543,0.1261,0.0752,0.0055,-0.0613,0.0236,-0.0767,0.0216,13010,13010,1,1
2024-12-12 10:32:49,0.0023,-0.0004,1.0033,-0.1987,-0.1663,0.0956,-0.0224,-0.1339,-0.0654,0.0293,-0.0663,0.0319,13010,13010,1,1
2024-12-12 10:32:49,-0.0003,-0.0045,1.0075,-0.0003,-0.1358,0.004,-0.2583,0.0194,-0.0583,0.0171,-0.0551,-0.0038,13003,13010,1,1
2024-12-12 10:32:49,-0.0045,-0.0033,1.0014,-0.0155,0.307,-0.0113,-0.1901,0.257,-0.0661,0.0177,-0.0787,0.0145,13010,13010,1,1
2024-12-12 10:32:49,0.0006,-0.0011,0.9965,-0.0919,0.078,0.1108,-0.0647,-0.0365,-0.057,0.0355,-0.049,0.0602,13010,13003,1,1
2024-12-12 10:32:49,0.0063,0.0016,0.9982,0.0455,0.0475,0.2024,0.0896,-0.3588,-0.0564,0.0164,-0.042,-0.0107,13010,13003,1,1
2024-12-12 10:32:49,-0.0006,-0.0009,1.004,-0.0003,-0.2579,0.004,-0.0502,0.0334,-0.0657,0.0301,-0.0701,0.0449,13010,13010,1,1
2024-12-12 10:32:49,-0.0008,0.0025,0.9999,0.0761,0.0169,0.0345,0.1454,0.0475,-0.0669,0.0389,-0.0756,0.0578,13003,13003,1,1
2024-12-12 10:32:49,-0.0011,-0.0082,0.9955,0.0303,-0.1205,0.1261,-0.4722,0.0618,-0.0717,0.0431,-0.0876,0.0602,13010,13010,1,1
2024-12-12 10:32:49,0.0026,-0.0048,1.0016,-0.0003,0.1696,-0.1487,-0.2738,-0.1481,-0.0726,0.0329,-0.0794,0.0194,13003,13010,1,1
2024-12-12 10:32:49,-0.0021,0.0011,1.004,-0.0919,-0.1663,0.0345,0.0612,0.117,-0.0705,0.0183,-0.0633,-0.0168,13010,13010,1,1
2024-12-12 10:32:50,-0.0025,-0.0082,1.0006,-0.1071,-0.1205,0.2024,-0.4698,0.1454,-0.052,0.0305,-0.021,0.0392,13010,13010,1,1
2024-12-12 10:32:50,-0.0035,0.0001,0.9962,-0.1987,-0.0747,-0.1334,0.0055,0.2022,-0.0428,0.0514,-0.0113,0.0983,13010,13010,1,1
2024-12-12 10:32:50,0.0045,0.0025,0.9992,-0.1835,-0.2732,-0.1945,0.1455,-0.2604,-0.0421,0.0377,-0.0216,0.0272,13003,13010,1,1
2024-12-12 10:32:50,-0.0094,0.0028,0.9999,-0.0461,-0.09,0.004,0.1594,0.5372,-0.0468,0.0425,-0.0402,0.0486,13003,13003,1,1
2024-12-12 10:32:50,0.0033,0.0003,0.986,-0.1835,-0.1968,0.1108,0.0198,-0.193,-0.0324,0.0364,-0.0151,0.0337,13010,13003,1,1
2024-12-12 10:32:50,-0.0035,-0.0043,0.9943,0.0608,-0.0289,0.1414,-0.2477,0.2026,-0.0277,0.0295,-0.0169,0.01,13010,13010,1,1
2024-12-12 10:32:50,0.0055,-0.006,1.0062,-0.1682,0.2001,-0.0724,-0.3421,-0.3142,-0.0561,0.0169,-0.1072,-0.0225,13010,13010,1,1
2024-12-12 10:32:50,0.0016,0.0008,0.9953,-0.0613,0.1391,-0.1182,0.0477,-0.0928,-0.0529,0.029,-0.0826,0.0377,13010,13010,1,1
2024-12-12 10:32:50,-0.0038,0.0008,0.9992,0.1371,-0.0594,-0.0571,0.0475,0.2156,-0.0458,0.0543,-0.0367,0.1048,13010,13010,1,1
2024-12-12 10:32:50,-0.0006,0.0028,1.0109,-0.0308,0.1543,0.0498,0.1577,0.0332,-0.0449,0.0451,-0.0385,0.0471,13010,13010,1,1
2024-12-12 10:32:50,0.0031,0.0028,1.0004,0.0761,0.078,0.1719,0.1593,-0.1762,-0.0461,0.0437,-0.0396,0.0395,13010,13003,1,1
2024-12-12 10:32:50,0.0023,-0.0058,1.0077,-0.1682,0.0322,-0.2861,-0.3277,-0.1333,-0.0521,0.0368,-0.0581,0.0276,13010,13010,1,1
2024-12-12 10:32:50,0.0021,0.0001,1.0004,-0.1071,0.0016,0.0345,0.0055,-0.1203,-0.0607,0.0376,-0.0837,0.0351,13010,13010,1,1
2024-12-12 10:32:50,0.0016,0.0013,0.9962,0.1219,-0.1816,0.1414,0.0757,-0.0927,-0.0396,-0.0001,-0.0158,-0.0631,13010,13003,1,1
2024-12-12 10:32:50,0.0016,0.0052,0.9989,-0.0461,-0.0442,-0.0571,0.2996,-0.0924,-0.0466,0.0071,-0.0428,-0.0052,13003,13002,1,1
2024-12-12 10:32:50,0.0036,-0.0019,1.0092,-0.0003,0.1696,-0.0113,-0.1054,-0.2024,-0.034,0.0186,-0.0093,0.0173,13010,13010,1,1
2024-12-12 10:32:50,0.0004,0.0011,1.0104,-0.1071,0.0322,0.1108,0.0608,-0.0222,-0.0125,0.0098,0.0323,-0.0178,13010,13010,1,1
2024-12-12 10:32:50,-0.0013,0.0038,0.9972,-0.0308,-0.0442,0.0192,0.2159,0.0757,-0.0262,0.0174,-0.0246,0.0177,13010,13010,1,1
2024-12-12 10:32:50,-0.0042,0.0003,1.0082,-0.0766,-0.0442,0.1414,0.0193,0.2414,-0.0275,0.0013,-0.0298,-0.0154,13010,13010,1,1
2024-12-12 10:32:50,0.005,-0.0031,1.0055,0.015,-0.0289,-0.0266,-0.1754,-0.2866,-0.0106,0.0057,0.0067,0.0051,13010,13010,1,1
2024-12-12 10:32:51,-0.003,-0.0011,0.9977,0.015,0.2765,0.1261,-0.0646,0.1738,-0.004,0.0165,0.0095,0.0294,13010,13010,1,1
2024-12-12 10:32:51,0.0048,0.004,0.9974,-0.0919,0.0933,-0.0266,0.2299,-0.2749,0.0027,0.0157,0.0216,0.0105,13010,13010,1,1
2024-12-12 10:32:51,-0.0003,0.0025,0.9994,0.0303,0.078,0.1719,0.1455,0.0196,0.0143,-0.0005,0.0342,-0.0301,13010,13003,1,1
2024-12-12 10:32:51,-0.0055,-0.0026,0.997,0.0761,0.0322,0.1414,-0.1488,0.3143,0.0039,0.0047,-0.0172,0.0119,13010,13010,1,1
2024-12-12 10:32:51,-0.0001,-0.0026,0.9965,-0.0461,-0.0747,-0.1945,-0.1489,0.0056,0.0082,-0.0019,-0.0059,-0.0108,13003,13003,1,1
2024-12-12 10:32:51,-0.0008,-0.0089,1.0021,-0.2751,0.0322,-0.1182,-0.511,0.0474,-0.0098,0.0163,-0.0637,0.0537,13010,13010,1,1
2024-12-12 10:32:51,-0.0016,0.0008,0.9894,-0.0613,-0.0747,0.0192,0.048,0.0905,-0.0133,0.0274,-0.0461,0.0562,13011,13010,1,1
2024-12-12 10:32:51,-0.0008,-0.0021,1.0038,0.0303,-0.1358,-0.1182,-0.1199,0.0474,-0.0059,0.0329,-0.0115,0.0655,13010,13010,1,1
2024-12-12 10:32:51,0.0045,0.0045,0.9992,-0.0308,-0.2121,-0.1792,0.2575,-0.2604,0.0033,0.0329,0.0066,0.0388,13001,13003,1,1
2024-12-12 10:32:51,-0.0052,0.0045,1.0023,-0.0613,-0.0442,-0.0724,0.2567,0.2986,-0.0038,0.0548,-0.0164,0.0841,13010,13003,1,1
2024-12-12 10:32:51,0.0082,0.0042,0.9931,-0.1682,-0.1205,0.1108,0.245,-0.4733,0.0136,0.0342,0.0419,-0.0016,13010,13010,1,1
2024-12-12 10:32:51,-0.0011,-0.0075,1.0055,-0.0919,-0.1205,0.065,-0.4258,0.0612,0.0033,0.0462,-0.0055,0.0468,13010,13010,1,1
2024-12-12 10:32:51,-0.0003,-0.0063,1.0009,-0.0003,-0.0289,0.0956,-0.3579,0.0195,-0.0118,0.0281,-0.0457,0.0033,13010,13010,1,1
2024-12-12 10:32:51,-0.0035,-0.0033,1.0021,-0.0919,0.2307,-0.1182,-0.1899,0.201,-0.0183,0.0191,-0.0498,-0.0098,13010,13003,1,1
2024-12-12 10:32:51,0.0004,-0.0016,1.0062,-0.0003,-0.151,-0.0571,-0.0918,-0.0223,-0.0221,0.0106,-0.0473,-0.0206,13010,13003,1,1
2024-12-12 10:32:51,-0.0047,0.0047,1.0004,-0.0919,-0.2274,0.0345,0.2712,0.2712,-0.0073,0.015,0.0066,0.0157,13010,13010,1,1
2024-12-12 10:32:51,-0.0016,-0.0026,1.0006,-0.0003,-0.1205,-0.1029,-0.1483,0.0894,-0.0217,0.0296,-0.0503,0.0421,13010,13010,1,1
2024-12-12 10:32:51,0.0043,-0.0021,0.9943,0.0608,-0.0136,0.065,-0.1211,-0.2476,-0.0242,0.0161,-0.0444,-0.007,13003,13010,1,1
2024-12-12 10:32:51,-0.0018,0.0013,1.0018,-0.0461,0.2154,-0.1487,0.0753,0.1033,-0.0437,0.0372,-0.0808,0.0655,13010,13010,1,1
2024-12-12 10:32:52,0.0016,0.0023,1.0001,0.1982,0.0475,-0.2098,0.1314,-0.0923,-0.0597,0.0361,-0.0967,0.0371,13010,13010,1,1
2024-12-12 10:32:52,-0.0045,-0.0001,0.9989,-0.0613,-0.0442,-0.0266,-0.0085,0.2576,-0.0598,0.0455,-0.0658,0.0614,13010,13003,1,1
2024-12-12 10:32:52,0.0023,0.0001,1.0009,-0.2751,0.0933,0.0803,0.0055,-0.1342,-0.0481,0.0423,-0.018,0.0398,13010,13011,1,1
2024-12-12 10:32:52,-0.0003,0.0023,0.9994,-0.0766,0.0169,-0.0876,0.1315,0.0196,-0.0587,0.0595,-0.0613,0.079,13010,13010,1,1
2024-12-12 10:32:52,0.0019,-0.0014,0.9938,0.0608,-0.0747,0.065,-0.0789,-0.107,-0.0492,0.0567,-0.0315,0.0473,13003,13003,1,1
2024-12-12 10:32:52,-0.0028,-0.0038,1.0036,-0.1224,-0.1052,-0.0876,-0.2175,0.1589,-0.0549,0.061,-0.0544,0.061,13010,13010,1,1
2024-12-12 10:32:52,0.0001,-0.0023,1.0033,-0.0308,0.0933,-0.164,-0.1339,-0.0084,-0.0621,0.0504,-0.0703,0.0179,13010,13010,1,1
2024-12-12 10:32:52,-0.0108,-0.0021,1.0106,0.0913,0.0016,0.2024,-0.1191,0.6145,-0.0549,0.063,-0.0453,0.0792,13010,13010,1,1
2024-12-12 10:32:52,-0.0052,-0.0006,1.0057,-0.0003,-0.151,0.0803,-0.0362,0.2976,-0.0569,0.0506,-0.0537,0.046,13010,13010,1,1
2024-12-12 10:32:52,0.0033,0.0023,1.007,0.1829,-0.0136,0.0345,0.1305,-0.1889,-0.0524,0.0291,-0.0331,-0.0208,13010,13010,1,1
2024-12-12 10:32:52,-0.0016,0.0028,1.0048,0.1829,-0.0136,0.1719,0.1586,0.0891,-0.0485,0.027,-0.034,-0.0019,13010,13003,1,1
2024-12-12 10:32:52,0.0031,-0.0063,0.9965,0.1219,0.0933,0.1414,-0.3594,-0.1769,-0.0514,0.0207,-0.0616,-0.003,13011,13010,1,1
2024-12-12 10:32:52,0.0006,0.0052,1.0006,0.1219,-0.0747,-0.0724,0.2991,-0.0364,-0.0417,0.0138,-0.0242,-0.0086,13010,13001,1,1
2024-12-12 10:32:52,0.0016,-0.0004,0.9955,0.1219,0.1238,-0.0724,-0.0226,-0.0928,-0.0394,0.0247,-0.0196,0.0335,13010,13003,1,1
2024-12-12 10:32:52,-0.0011,0.0047,1.0055,0.1066,-0.0442,0.065,0.2698,0.0612,-0.0234,0.0206,0.0252,0.0121,13010,13003,1,1
2024-12-12 10:32:52,0.0033,-0.0014,1.0114,0.0455,-0.0136,0.004,-0.0775,-0.1881,-0.0306,0.0055,-0.0155,-0.0256,13003,13003,1,1
2024-12-12 10:32:52,0.0043,-0.0011,0.9931,-0.1071,-0.151,-0.1487,-0.0649,-0.2479,-0.0344,0.0043,-0.0299,-0.0162,13010,13010,1,1
2024-12-12 10:32:52,-0.005,-0.0011,0.9926,-0.0919,-0.0747,-0.0724,-0.0649,0.2875,-0.0287,-0.0021,-0.0133,-0.0039,13010,13010,1,1
2024-12-12 10:32:52,-0.0045,0.0003,1.004,-0.0155,0.0627,0.004,0.0194,0.2563,-0.036,0.0151,-0.0365,0.052,13010,13003,1,1
2024-12-12 10:32:53,-0.0018,0.0038,0.9935,0.0303,-0.09,0.004,0.2167,0.1042,-0.0206,0.038,0.0117,0.0876,13003,13003,1,1
2024-12-12 10:32:53,0.0014,-0.0019,1.0023,0.1371,-0.2884,-0.0266,-0.1061,-0.0782,-0.0276,0.014,-0.0346,-0.0098,13003,13010,1,1
2024-12-12 10:32:53,-0.0082,-0.0023,0.9984,-0.0155,0.1085,-0.0571,-0.1346,0.4679,-0.0324,0.0426,-0.0478,0.0874,13010,13010,1,1
2024-12-12 10:32:53,-0.0033,0.0001,0.9989,0.015,0.078,-0.1487,0.0055,0.1876,-0.0524,0.0439,-0.0971,0.0655,13013,13010,1,1
2024-12-12 10:32:53,-0.003,0.0011,0.9977,0.1219,0.0933,-0.1029,0.0616,0.1738,-0.0485,0.05,-0.0679,0.0627,13003,13003,1,1
2024-12-12 10:32:53,-0.0008,0.0001,1.0067,-0.0308,-0.0594,0.004,0.0055,0.0472,-0.0053,0.0158,0.0597,-0.0273,13010,13003,1,1
2024-12-12 10:32:53,-0.0094,-0.0028,0.9916,-0.0308,-0.151,-0.1334,-0.1637,0.5417,-0.0242,0.0201,-0.0295,0.0294,13003,13003,1,1
2024-12-12 10:32:53,0.006,-0.005,1.0026,-0.1529,0.2001,-0.1334,-0.2875,-0.3432,-0.0152,0.0124,-0.0023,-0.0154,13010,13011,1,1
2024-12-12 10:32:53,-0.0079,-0.0038,0.9979,-0.0766,-0.2426,-0.164,-0.2188,0.4541,-0.0295,0.0342,-0.0656,0.07,13010,13010,1,1
2024-12-12 10:32:53,-0.0033,0.0003,0.9926,-0.0613,0.0169,-0.0876,0.0196,0.1888,-0.0567,0.0551,-0.1143,0.1077,13010,13003,1,1
2024-12-12 10:32:53,0.0001,0.0006,1.0048,0.0913,0.1238,-0.0571,0.0333,-0.0084,-0.0155,0.0161,0.0263,-0.0233,13010,13010,1,1
2024-12-12 10:32:53,-0.0018,0.0011,0.997,0.0303,-0.09,-0.1029,0.0617,0.1038,-0.0321,0.0419,-0.0343,0.0668,13010,13003,1,1
2024-12-12 10:32:53,0.0036,0.0047,1.0011,0.1066,-0.0747,-0.0266,0.271,-0.204,-0.0165,0.023,0.0089,-0.0036,13002,13010,1,1
2024-12-12 10:32:53,-0.0013,-0.0026,1.0065,-0.1377,-0.4564,-0.0571,-0.1474,0.075,-0.0521,0.0334,-0.1139,0.0478,13010,13010,1,1
2024-12-12 10:32:53,0.0021,-0.0004,1.0021,0.0303,-0.0136,0.004,-0.0224,-0.1201,-0.0311,0.0291,-0.0176,0.0237,13010,13003,1,1
2024-12-12 10:32:53,0.0038,-0.0028,1.0009,-0.1224,0.0169,0.0498,-0.1622,-0.2181,-0.0285,0.0265,-0.0197,0.0128,13010,13003,1,1
2024-12-12 10:32:53,-0.0023,0.0045,1.0048,-0.0155,0.1391,-0.0724,0.2561,0.1308,-0.0308,0.0461,-0.02,0.0645,13010,13003,1,1
2024-12-12 10:32:53,-0.0011,0.0047,0.9999,-0.1682,-0.1358,0.0956,0.2713,0.0615,-0.0104,0.0336,0.03,0.0194,13010,13010,1,1
2024-12-12 10:32:53,-0.003,-0.0011,0.9982,0.015,-0.0747,-0.1029,-0.0645,0.1737,-0.0016,0.0395,0.023,0.0498,13010,13010,1,1
2024-12-12 10:32:54,0.0006,-0.0021,1.0062,-0.0308,-0.0594,0.0498,-0.1196,-0.0362,0.0071,0.0399,0.0215,0.0408,13010,13003,1,1
2024-12-12 10:32:54,-0.0067,-0.0031,1.0077,-0.0308,0.1238,-0.1029,-0.175,0.3803,-0.0217,0.0395,-0.0773,0.0391,13010,13010,1,1
2024-12-12 10:32:54,0.0045,-0.0026,0.995,0.0608,0.078,0.004,-0.1491,-0.2615,-0.0283,0.0148,-0.0604,-0.0382,13010,13010,1,1
2024-12-12 10:32:54,-0.0113,-0.0026,0.9992,-0.0613,-0.1205,0.004,-0.1485,0.6495,-0.036,0.0336,-0.069,0.0485,13010,13010,1,1
2024-12-12 10:32:54,-0.003,-0.0001,0.9931,0.0455,0.0169,0.004,-0.0085,0.1746,-0.0432,0.0636,-0.0704,0.1163,13010,13010,1,1
2024-12-12 10:32:54,-0.0018,0.0011,0.9999,-0.0766,-0.1663,0.1108,0.0615,0.1035,-0.0327,0.0399,-0.0288,0.0298,13010,13010,1,1
2024-12-12 10:32:54,-0.0003,0.0023,0.9972,0.1982,-0.1052,-0.0418,0.1318,0.0196,-0.0398,0.0665,-0.058,0.1024,13003,13003,1,1
2024-12-12 10:32:54,0.0001,-0.0028,1.005,-0.0613,0.0475,-0.0266,-0.1615,-0.0084,-0.0382,0.0617,-0.0485,0.0585,13010,13010,1,1
2024-12-12 10:32:54,-0.003,0.0011,0.9999,-0.0155,-0.1205,0.1108,0.0615,0.1734,-0.0555,0.0826,-0.0824,0.1051,13010,13010,1,1
2024-12-12 10:32:54,0.0036,-0.0023,0.9948,-0.1377,0.1085,0.0345,-0.1351,-0.2053,-0.0653,0.0865,-0.0955,0.0852,13010,13010,1,1
2024-12-12 10:32:54,-0.0025,-0.0055,0.994,0.0303,0.0016,0.3704,-0.3181,0.1463,-0.0876,0.0686,-0.1515,0.0414,13010,13010,1,1
2024-12-12 10:32:54,-0.0006,0.004,1.0004,0.015,0.1543,0.1261,0.2292,0.0335,-0.1075,0.0712,-0.1526,0.0652,13010,13003,1,1
2024-12-12 10:32:54,-0.0003,0.0023,1.0006,-0.0308,-0.0594,0.4009,0.1313,0.0195,-0.084,0.0557,-0.0601,0.0264,13010,13010,1,1
2024-12-12 10:32:54,-0.0057,-0.0043,1.0092,0.0761,-0.1052,0.0192,-0.244,0.3243,-0.0934,0.0814,-0.0992,0.1066,13010,13003,1,1
2024-12-12 10:32:54,-0.0055,0.0079,1.0031,-0.0461,0.0475,0.0498,0.4517,0.3123,-0.0877,0.0867,-0.0619,0.1042,13010,13010,1,1
2024-12-12 10:32:54,0.0021,-0.0043,0.9943,-0.214,0.0627,0.1414,-0.2477,-0.121,-0.1044,0.0702,-0.1082,0.0408,13010,13010,1,1
2024-12-12 10:32:54,0.0023,-0.0014,1.0004,-0.1377,-0.151,0.0803,-0.0784,-0.1343,-0.0917,0.0589,-0.0638,0.0127,13010,13010,1,1
2024-12-12 10:32:54,-0.0003,0.0008,1.0065,-0.0003,0.1391,-0.0571,0.0472,0.0194,-0.0833,0.0485,-0.0466,0.0021,13010,13003,1,1
2024-12-12 10:32:54,-0.0064,0.0018,0.994,0.015,-0.0136,-0.0724,0.104,0.3715,-0.0681,0.0435,-0.0178,0.0134,13010,13010,1,1
2024-12-12 10:32:54,0.005,-0.0019,0.994,0.1524,0.0169,0.1566,-0.107,-0.2899,-0.071,0.045,-0.0458,0.0248,13010,13010,1,1
2024-12-12 10:32:55,-0.0045,-0.0011,1.0057,0.1677,0.0016,0.1414,-0.0641,0.2559,-0.0649,0.0499,-0.045,0.0549,13010,13003,1,1
2024-12-12 10:32:55,-0.005,0.0035,0.9992,-0.2293,-0.0442,-0.1487,0.2015,0.2856,-0.0693,0.0375,-0.0665,0.0238,13010,13010,1,1
2024-12-12 10:32:55,-0.0047,-0.0006,1.0067,-0.0919,0.1543,-0.0266,-0.0362,0.2695,-0.0778,0.0496,-0.0942,0.0635,13010,13010,1,1
2024-12-12 10:32:55,-0.0025,-0.0009,0.9996,-0.1224,-0.1663,0.2024,-0.0505,0.1455,-0.0684,0.0475,-0.057,0.0515,13010,13010,1,1
2024-12-12 10:32:55,0.0048,0.0011,1.0031,-0.0613,0.2154,-0.1334,0.0613,-0.2734,-0.0626,0.0262,-0.0379,-0.0114,13010,13010,1,1
2024-12-12 10:32:55,-0.0055,-0.0014,0.9989,0.015,-0.0442,-0.0724,-0.0785,0.3136,-0.0507,0.0179,-0.0157,-0.0016,13010,13003,1,1
2024-12-12 10:32:55,0.0045,0.0028,0.9996,-0.0308,-0.1968,0.0803,0.1594,-0.2603,-0.0333,0.0237,0.0195,0.0309,13010,13003,1,1
2024-12-12 10:32:55,-0.0074,0.0003,1.0075,-0.1835,0.0475,-0.1792,0.0194,0.4221,-0.0469,0.037,-0.0461,0.07,13010,13010,1,1
2024-12-12 10:32:55,-0.0025,0.006,0.9935,-0.0613,0.0322,-0.2861,0.3434,0.1464,-0.0423,0.0234,-0.0281,0.0235,13010,13010,1,1
2024-12-12 10:32:55,0.0011,0.0025,1.0079,-0.1071,-0.0136,0.0345,0.1442,-0.0639,-0.0376,0.0075,-0.0219,-0.0227,13010,13010,1,1
2024-12-12 10:32:55,0.0028,0.0018,0.9965,-0.0003,-0.1205,0.0345,0.1038,-0.1629,-0.0436,0.0118,-0.0553,0.0052,13010,13010,1,1
2024-12-12 10:32:55,-0.0023,-0.0009,1.0023,-0.0613,0.0169,-0.1182,-0.0503,0.1312,-0.0406,-0.0144,-0.0418,-0.0522,13003,13003,1,1
2024-12-12 10:32:55,0.0043,0.0035,1.0036,0.1219,0.1085,0.0498,0.2006,-0.2453,-0.0387,-0.0383,-0.0435,-0.1007,13010,13003,1,1
2024-12-12 10:32:55,0.0033,0.0001,1.0057,-0.0766,0.0322,0.065,0.0055,-0.1892,-0.0574,-0.0347,-0.0855,-0.0483,13010,13010,1,1
2024-12-12 10:32:55,-0.005,0.0001,0.9972,0.015,0.0016,0.2635,0.0055,0.2861,-0.0547,-0.0231,-0.0674,0.0057,13010,13003,1,1
2024-12-12 10:32:55,-0.003,0.0003,0.9955,-0.0766,0.0016,0.0803,0.0196,0.1742,-0.0354,-0.0275,-0.0079,-0.001,13010,13010,1,1
2024-12-12 10:32:55,0.0006,-0.0033,0.9989,-0.0003,0.0475,0.0345,-0.1905,-0.0364,-0.0568,-0.0005,-0.0917,0.0723,13010,13010,1,1
2024-12-12 10:32:55,-0.0038,0.0018,1.0072,0.0455,-0.0136,0.1872,0.1027,0.2138,-0.0688,-0.0196,-0.101,-0.0141,13010,13010,1,1
2024-12-12 10:32:55,-0.004,-0.0009,1.0087,-0.0613,-0.0136,0.0803,-0.05,0.2274,-0.0583,-0.0128,-0.0472,0.0088,13010,13003,1,1
2024-12-12 10:32:56,-0.0013,-0.0019,0.9979,-0.0766,0.0627,-0.0418,-0.1066,0.0757,-0.0605,-0.014,-0.0595,-0.0024,13010,13010,1,1
2024-12-12 10:32:56,-0.0033,0.0003,0.9992,0.1066,0.2459,-0.1334,0.0195,0.1876,-0.0573,-0.0256,-0.059,-0.0357,13003,13003,1,1
2024-12-12 10:32:56,-0.0003,-0.0009,1.0014,0.0455,0.1696,0.065,-0.0504,0.0195,-0.0611,-0.0267,-0.0684,-0.0339,13003,13003,1,1
2024-12-12 10:32:56,-0.0035,0.0001,1.0043,-0.1071,0.1696,0.065,0.0055,0.2005,-0.0775,-0.0205,-0.105,-0.002,13010,13010,1,1
2024-12-12 10:32:56,-0.0033,-0.0033,1.0021,-0.0919,0.0933,-0.0266,-0.1899,0.187,-0.0746,-0.0015,-0.0844,0.0408,13010,13003,1,1
2024-12-12 10:32:56,0.0001,-0.0058,1.0006,-0.0308,-0.0442,0.0956,-0.33,-0.0084,-0.0738,0.006,-0.0852,0.045,13010,13003,1,1
2024-12-12 10:32:56,-0.0003,0.0025,0.9994,0.0455,-0.0442,0.1872,0.1455,0.0196,-0.0613,-0.013,-0.0466,-0.0256,13010,13010,1,1
2024-12-12 10:32:56,0.006,-0.0016,0.9992,-0.0919,-0.0747,-0.164,-0.0925,-0.3444,-0.0595,-0.0099,-0.0528,-0.0077,13010,13010,1,1
2024-12-12 10:32:56,0.0023,-0.0033,0.9994,-0.0766,-0.0442,0.1872,-0.1904,-0.1344,-0.0623,-0.0049,-0.0718,0.0072,13010,13010,1,1
2024-12-12 10:32:56,0.0006,-0.0041,0.9982,-0.0155,-0.151,-0.1792,-0.2327,-0.0365,-0.0689,-0.0149,-0.0825,-0.0133,13010,13003,1,1
2024-12-12 10:32:56,-0.005,-0.0031,1.0006,-0.0461,0.0169,0.1414,-0.1762,0.2852,-0.0547,-0.015,-0.0425,-0.0025,13010,13010,1,1
2024-12-12 10:32:56,-0.0045,-0.0001,1.0001,0.1524,-0.1663,-0.1487,-0.0085,0.2573,-0.056,-0.0058,-0.0487,0.0214,13003,13010,1,1
2024-12-12 10:32:56,0.0011,0.0035,0.9974,0.0303,-0.0747,-0.0724,0.2019,-0.0645,-0.0451,0.0053,-0.0153,0.0278,13003,13003,1,1
2024-12-12 10:32:56,-0.0006,-0.006,1.0009,0.0761,0.1543,0.1261,-0.3439,0.0335,-0.0451,0.011,-0.0391,0.037,13010,13010,1,1
2024-12-12 10:32:56,0.0023,-0.0004,0.9933,0.0608,-0.1052,0.0345,-0.0226,-0.1352,-0.0463,0.0095,-0.0504,0.0224,13010,13002,1,1
2024-12-12 10:32:56,-0.0006,0.0013,1.007,-0.0613,-0.0289,0.2024,0.0749,0.0333,-0.0446,0.0212,-0.0417,0.0498,13010,13010,1,1
2024-12-12 10:32:56,0.0011,-0.0001,0.9955,-0.3056,0.2459,-0.0418,-0.0085,-0.0647,-0.0409,0.0039,-0.0396,-0.0189,13010,13003,1,1
2024-12-12 10:32:56,-0.006,0.0016,0.9984,-0.0308,0.1391,0.0498,0.0896,0.3418,-0.0396,0.0276,-0.0343,0.0665,13003,13003,1,1
2024-12-12 10:32:56,-0.0028,-0.0033,0.9994,0.1066,-0.2121,-0.1334,-0.1904,0.1595,-0.0292,0.0286,-0.0109,0.0498,13010,13010,1,1
2024-12-12 10:32:57,-0.0045,-0.0041,0.9984,0.1219,0.1543,0.1719,-0.2327,0.2578,-0.0368,0.0412,-0.0438,0.059,13010,13010,1,1
2024-12-12 10:32:57,-0.005,0.0028,0.9999,-0.0613,0.0169,-0.0571,0.1594,0.2854,-0.0178,0.0286,0.0101,0.0114,13010,13010,1,1
2024-12-12 10:32:57,0.0011,0.0045,1.0062,-0.1377,-0.0747,0.1414,0.2557,-0.064,-0.0076,0.0247,0.0203,0.0053,13010,13010,1,1
2024-12-12 10:32:57,0.0001,-0.0026,0.996,-0.0613,-0.09,-0.0724,-0.149,-0.0085,-0.0412,0.0068,-0.0859,-0.0289,13010,13010,1,1
2024-12-12 10:32:57,-0.0021,-0.007,0.996,-0.0613,0.0475,0.1719,-0.4018,0.1179,-0.0641,0.0143,-0.1268,0.0101,13010,13010,1,1
2024-12-12 10:32:57,-0.0011,-0.0011,0.9992,0.0608,0.0322,0.2024,-0.0645,0.0616,-0.0496,0.0064,-0.0522,-0.0101,13011,13010,1,1
2024-12-12 10:32:57,-0.0006,-0.0016,0.9933,0.0455,-0.1052,-0.4999,-0.093,0.0338,-0.0704,0.007,-0.112,0.002,13003,13003,1,1
2024-12-12 10:32:57,-0.003,-0.0031,0.9931,0.0303,-0.0289,-0.0876,-0.1776,0.1746,-0.074,-0.0053,-0.1002,-0.0268,13010,13010,1,1
2024-12-12 10:32:57,0.0023,0.0045,1.0028,-0.1529,0.0016,-0.0418,0.2566,-0.1339,-0.0661,-0.0017,-0.0448,-0.0161,13010,13010,1,1
2024-12-12 10:32:57,-0.0021,-0.0021,1.0009,-0.0155,-0.0136,-0.0113,-0.1203,0.1174,-0.0529,0.0026,-0.0179,0.0066,13010,13003,1,1
2024-12-12 10:32:57,-0.0003,0.0013,1.0033,-0.0919,-0.2121,-0.164,0.0752,0.0195,-0.0459,-0.0025,-0.0224,-0.0016,13003,13003,1,1
2024-12-12 10:32:57,-0.0035,-0.0001,1.0014,-0.0155,-0.0136,0.1261,-0.0085,0.2011,-0.0503,-0.0041,-0.0427,0.0061,13010,13011,1,1
2024-12-12 10:32:57,-0.0033,-0.0026,0.995,0.1219,-0.0747,-0.0724,-0.1491,0.1884,-0.0393,0.0188,-0.019,0.0679,13010,13010,1,1
2024-12-12 10:32:57,0.0006,-0.0055,1.0116,-0.0461,-0.0442,-0.2098,-0.3126,-0.036,-0.0447,0.0197,-0.0364,0.0404,13010,13003,1,1
2024-12-12 10:32:57,0.0016,0.0033,0.9926,-0.1071,0.0169,0.0803,0.1888,-0.093,-0.0252,-0.0031,0.0118,-0.0316,13010,13010,1,1
2024-12-12 10:32:57,-0.004,0.0016,1.0038,0.0455,-0.1358,0.0956,0.0891,0.2285,-0.0474,0.0023,-0.0661,0.0062,13003,13010,1,1
2024-12-12 10:32:57,-0.0038,-0.0004,0.9945,-0.0613,0.0627,0.004,-0.0226,0.2166,-0.0629,0.0185,-0.1001,0.0504,13010,13003,1,1
2024-12-12 10:32:57,0.0033,-0.0084,0.9977,-0.1224,0.0933,-0.0113,-0.4852,-0.1907,-0.0798,0.0079,-0.1383,-0.0068,13010,13003,1,1
2024-12-12 10:32:57,-0.0074,-0.0021,0.9957,-0.1987,-0.1968,0.1261,-0.1209,0.427,-0.0816,0.0232,-0.1052,0.0612,13010,13003,1,1
2024-12-12 10:32:58,-0.0001,-0.0021,0.9994,-0.0308,0.0475,0.0956,-0.1205,0.0056,-0.0627,0.0182,-0.034,0.0332,13010,13011,1,1
2024-12-12 10:32:58,0.0011,0.0008,1.0023,-0.0613,0.0322,0.0498,0.0474,-0.0642,-0.0786,0.0106,-0.0891,0.0016,13003,13010,1,1
2024-12-12 10:32:58,0.0023,-0.0016,0.9989,-0.0003,0.2001,-0.0266,-0.0925,-0.1345,-0.0736,0.0301,-0.0601,0.0511,13003,13003,1,1
2024-12-12 10:32:58,-0.0042,0.0038,1.0016,-0.0308,0.0627,-0.2708,0.215,0.243,-0.0593,0.0479,-0.0295,0.0889,13010,13010,1,1
2024-12-12 10:32:58,0.0006,-0.0014,0.9945,0.1066,0.0933,-0.1945,-0.0789,-0.0366,-0.0688,0.0614,-0.0767,0.0912,13003,13003,1,1
2024-12-12 10:32:58,0.0011,0.0052,0.9904,-0.0919,0.0016,-0.0418,0.3022,-0.065,-0.0448,0.0562,-0.0008,0.0579,13010,13010,1,1
2024-12-12 10:32:58,0.0028,-0.0009,0.9984,-0.0613,0.0627,0.1414,-0.0505,-0.1625,-0.0422,0.0542,-0.0204,0.0442,13010,13010,1,1
2024-12-12 10:32:58,-0.0047,-0.007,0.9913,0.0608,-0.0136,-0.0571,-0.4036,0.2737,-0.046,0.0505,-0.0549,0.0353,13010,13010,1,1
2024-12-12 10:32:58,0.0041,-0.0023,1.0062,0.0455,-0.0594,0.1108,-0.1335,-0.2308,-0.0552,0.0479,-0.0801,0.0269,13010,13010,1,1
2024-12-12 10:32:58,-0.0011,0.0016,0.9911,0.0913,0.0169,0.1719,0.0902,0.0621,-0.0344,0.0414,-0.0064,0.0155,13003,13010,1,1
2024-12-12 10:32:58,-0.0055,-0.0045,0.9994,0.015,-0.1205,-0.1029,-0.2604,0.3135,-0.0616,0.0516,-0.0963,0.053,13010,13010,1,1
2024-12-12 10:32:58,-0.0028,-0.0028,1.0021,0.0303,0.1085,-0.0266,-0.162,0.1591,-0.0434,0.0322,-0.04,-0.0093,13010,13003,1,1
2024-12-12 10:32:58,-0.003,0.0006,0.9987,-0.0308,-0.151,0.0498,0.0335,0.1737,-0.0519,0.0599,-0.0606,0.0839,13003,13003,1,1
2024-12-12 10:32:58,0.0058,0.0001,1.0079,0.0455,-0.2121,-0.0876,0.0055,-0.3275,-0.0531,0.0547,-0.0548,0.0476,13010,13010,1,1
2024-12-12 10:32:58,0.0023,0.0006,0.9935,-0.1682,0.078,-0.0266,0.0337,-0.1352,-0.0438,0.0654,-0.0273,0.0802,13010,13010,1,1
2024-12-12 10:32:58,-0.0042,0.0016,0.9943,0.1066,-0.2274,-0.1182,0.09,0.2448,-0.0611,0.0652,-0.0769,0.0712,13010,13010,1,1
2024-12-12 10:32:58,-0.0003,0.0025,0.9984,-0.0155,-0.1968,0.065,0.1456,0.0196,-0.0412,0.0631,-0.0138,0.0659,13010,13003,1,1
2024-12-12 10:32:58,-0.003,0.0006,0.9984,0.1066,0.1543,-0.0113,0.0335,0.1737,-0.0263,0.0659,0.003,0.0693,13003,13002,1,1
2024-12-12 10:32:58,0.0014,0.0038,0.9984,-0.0308,0.1391,-0.1487,0.2157,-0.0785,-0.0123,0.0459,0.0155,0.0142,13010,13003,1,1
2024-12-12 10:32:58,0.0021,0.0042,0.9972,0.2135,0.0933,0.1719,0.244,-0.1207,-0.0064,0.0585,0.016,0.0595,13010,13003,1,1
2024-12-12 10:32:59,-0.0016,-0.0038,0.9926,-0.1071,-0.1663,-0.1182,-0.2199,0.0902,-0.016,0.0502,-0.0249,0.0274,13010,13010,1,1
2024-12-12 10:32:59,0.0016,-0.0016,0.9884,-0.0003,-0.2732,0.0345,-0.0935,-0.0934,-0.0348,0.0754,-0.0723,0.1079,13010,13003,1,1
2024-12-12 10:32:59,-0.0033,0.0013,1.0043,-0.0461,-0.0594,0.004,0.0751,0.1866,-0.0388,0.0783,-0.0562,0.1037,13010,13003,1,1
2024-12-12 10:32:59,0.0004,0.0011,0.9879,0.0608,-0.1205,0.0498,0.0622,-0.0227,-0.047,0.0761,-0.0686,0.0719,13010,13003,1,1
2024-12-12 10:32:59,0.0001,-0.0001,0.9992,0.0303,-0.0442,-0.0266,-0.0085,-0.0084,-0.039,0.0915,-0.0364,0.098,13010,13010,1,1
2024-12-12 10:32:59,-0.0045,0.004,0.9957,0.0455,-0.1205,0.1414,0.2303,0.2585,-0.0133,0.0517,0.0278,-0.0145,13010,13003,1,1
2024-12-12 10:32:59,0.0019,0.0003,0.9938,0.015,0.1543,-0.1792,0.0196,-0.107,-0.0221,0.0527,-0.0176,0.025,13011,13010,1,1
2024-12-12 10:32:59,0.0016,-0.0016,1.0048,-0.0766,-0.0747,0.004,-0.092,-0.0919,-0.0164,0.0345,-0.0094,-0.0111,13003,13010,1,1
2024-12-12 10:32:59,-0.0018,-0.0016,1.0038,0.0913,0.1085,-0.0113,-0.0921,0.1031,-0.0253,0.0647,-0.0485,0.0952,13010,13003,1,1
2024-12-12 10:32:59,0.0014,0.0016,1.0016,0.244,-0.09,0.0498,0.0893,-0.0782,-0.0099,0.0547,0.0004,0.0454,13010,13010,1,1
2024-12-12 10:32:59,-0.0074,-0.0045,0.9992,0.1982,-0.0289,0.1108,-0.2605,0.4256,-0.0276,0.0679,-0.0671,0.0932,13010,13010,1,1
2024-12-12 10:32:59,0.0006,0.0018,0.9987,-0.0461,-0.0594,0.0498,0.1036,-0.0364,-0.0188,0.0547,-0.0145,0.0384,13001,13003,1,1
2024-12-12 10:32:59,-0.0006,0.0011,1.0072,-0.0919,0.0322,-0.2098,0.061,0.0333,-0.0138,0.0567,-0.0071,0.0456,13010,13003,1,1
2024-12-12 10:32:59,0.0004,-0.0031,0.9945,0.0303,0.2459,-0.0724,-0.1773,-0.0225,-0.0257,0.0475,-0.0504,0.0241,13003,13003,1,1
2024-12-12 10:32:59,-0.0013,-0.0048,0.997,0.0913,-0.1052,0.1261,-0.2751,0.0757,-0.0263,0.0429,-0.0384,0.0259,13010,13010,1,1
2024-12-12 10:32:59,0.0004,-0.0048,0.9996,0.0761,-0.1205,-0.225,-0.2743,-0.0224,-0.0429,0.0378,-0.0838,0.0131,13010,13003,1,1
2024-12-12 10:32:59,-0.0008,-0.0006,0.9965,-0.0155,0.1849,0.0803,-0.0366,0.0477,-0.0457,0.0315,-0.0733,0.006,13010,13010,1,1
2024-12-12 10:32:59,-0.0013,0.0006,1.0016,0.0303,0.078,-0.0113,0.0334,0.0754,-0.0374,0.034,-0.0382,0.0182,13003,13002,1,1
2024-12-12 10:32:59,0.0021,-0.0009,0.9994,0.0608,0.0169,0.0498,-0.0505,-0.1204,-0.0468,0.0288,-0.0612,0.0076,13003,13003,1,1
2024-12-12 10:33:00,-0.0028,-0.0004,1.0028,-0.1377,-0.151,0.0192,-0.0224,0.159,-0.0271,0.0324,0.0016,0.0279,13010,13003,1,1
2024-12-12 10:33:00,0.0004,0.0045,0.9967,-0.0003,0.0322,-0.0266,0.2581,-0.0225,-0.0187,0.0208,0.0094,-0.002,13010,13010,1,1
2024-12-12 10:33:00,0.0001,-0.0031,0.9931,0.1219,-0.09,0.0956,-0.1776,-0.0085,-0.0286,0.0011,-0.0373,-0.0424,13010,13010,1,1
2024-12-12 10:33:00,-0.0038,-0.0009,1.0048,0.1524,-0.2274,-0.0113,-0.0502,0.2144,-0.0373,-0.0058,-0.0549,-0.0358,13010,13002,1,1
2024-12-12 10:33:00,0.0016,-0.0028,1.0057,0.0303,-0.09,0.1108,-0.1614,-0.0918,-0.0386,0.0028,-0.0538,-0.0013,13010,13003,1,1
2024-12-12 10:33:00,-0.0006,-0.0009,1.0021,0.015,-0.1052,0.0192,-0.0503,0.0335,-0.0118,-0.0075,0.0245,-0.0202,13010,13003,1,1
2024-12-12 10:33:00,0.0004,-0.0026,0.9972,0.0761,0.1085,0.004,-0.1488,-0.0225,-0.0446,0.0065,-0.0858,0.0287,13010,13010,1,1
2024-12-12 10:33:00,-0.0006,0.0008,1.0016,-0.0766,-0.0289,-0.0266,0.0474,0.0335,-0.031,0.0111,-0.0226,0.0317,13010,13003,1,1
2024-12-12 10:33:00,-0.0001,0.0018,1.0006,-0.0461,0.3681,0.0803,0.1034,0.0056,-0.0675,0.0071,-0.1244,0.0198,13003,13003,1,1
2024-12-12 10:33:00,0.0053,-0.0045,0.9913,0.0913,0.0322,0.0803,-0.2625,-0.3048,-0.0679,0.0204,-0.0919,0.0444,13010,13003,1,1
2024-12-12 10:33:00,-0.0016,-0.005,1.0004,0.1982,-0.2121,-0.1334,-0.2881,0.0895,-0.0594,0.0258,-0.061,0.0549,13010,13003,1,1
2024-12-12 10:33:00,0.0036,-0.0016,1.0023,0.0913,0.0322,-0.0876,-0.0922,-0.2038,-0.0533,0.0216,-0.0366,0.0262,13010,13010,1,1
2024-12-12 10:33:00,0.0019,-0.0045,0.9987,-0.0461,-0.0289,0.3093,-0.2606,-0.1065,-0.055,0.0016,-0.0368,-0.0327,13010,13010,1,1
2024-12-12 10:33:00,0.0067,-0.0011,1.0043,-0.0155,-0.0747,0.0345,-0.0642,-0.3844,-0.048,-0.0246,-0.0281,-0.0855,13010,13010,1,1
2024-12-12 10:33:00,-0.0016,0.0028,0.9999,0.0761,0.2612,0.0345,0.1594,0.0895,-0.0389,-0.0021,-0.0075,0.015,13003,13003,1,1
2024-12-12 10:33:00,0.0021,-0.0048,1.0033,0.1066,0.2612,0.2177,-0.2733,-0.1199,-0.0463,0.0176,-0.0522,0.0539,13010,13003,1,1
2024-12-12 10:33:00,-0.0047,-0.0009,1.0084,-0.0461,0.0627,0.0498,-0.05,0.2691,-0.0448,0.0267,-0.0368,0.0604,13003,13010,1,1
2024-12-12 10:33:00,-0.0042,-0.0004,1.0026,-0.0155,-0.0442,0.1719,-0.0224,0.2427,-0.0456,0.0101,-0.0398,0.0011,13010,13003,1,1
2024-12-12 10:33:00,0.0019,-0.0033,1.0065,0.1524,-0.0289,-0.0113,-0.1891,-0.1057,-0.0537,0.0047,-0.056,-0.016,13010,13003,1,1
2024-12-12 10:33:01,-0.0013,0.0045,0.9943,0.0455,-0.09,0.2635,0.2588,0.0759,-0.0499,0.0129,-0.0267,0.0247,13003,13003,1,1
2024-12-12 10:33:01,0.0028,0.0018,1.0011,0.1066,-0.1205,-0.225,0.1033,-0.1621,-0.0458,0.0214,-0.0235,0.0373,13010,13010,1,1
2024-12-12 10:33:01,-0.0062,0.0011,0.9974,-0.0766,-0.1816,-0.0571,0.0616,0.3562,-0.0507,0.0291,-0.0415,0.0675,13010,13003,1,1
2024-12-12 10:33:01,-0.0035,-0.0065,0.9955,-0.0766,-0.0442,-0.0571,-0.3738,0.2023,-0.0667,0.0085,-0.0886,0.0058,13010,13010,1,1
2024-12-12 10:33:01,-0.0016,0.0011,0.9965,-0.1071,-0.2274,-0.1792,0.0617,0.0898,-0.0823,0.0205,-0.1175,0.0465,13010,13003,1,1
2024-12-12 10:33:01,-0.005,0.0028,0.9989,-0.0003,-0.1968,-0.1029,0.1596,0.2856,-0.0754,0.0388,-0.0703,0.0862,13003,13003,1,1
2024-12-12 10:33:01,-0.005,-0.0031,0.9994,-0.1071,-0.1816,-0.0113,-0.1764,0.2855,-0.0639,0.0272,-0.0488,0.0382,13010,13010,1,1
2024-12-12 10:33:01,0.0006,-0.0016,1.0033,-0.0766,0.1085,-0.0724,-0.0921,-0.0363,-0.0671,0.035,-0.0667,0.0434,13010,13010,1,1
2024-12-12 10:33:01,0.0019,0.0013,1.0075,0.1219,-0.319,0.0956,0.0749,-0.1056,-0.0559,0.0227,-0.0331,0.0016,13003,13003,1,1
2024-12-12 10:33:01,0.0033,-0.0041,1.0038,-0.0613,0.2154,0.065,-0.2314,-0.1895,-0.0625,0.0188,-0.0589,-0.0047,13003,13003,1,1
2024-12-12 10:33:01,-0.0018,-0.0043,1.0011,0.0455,-0.1358,0.004,-0.246,0.1034,-0.057,0.019,-0.0491,0.0152,13002,13003,1,1
2024-12-12 10:33:01,-0.0003,0.003,1.0021,0.0608,-0.0136,0.2635,0.173,0.0195,-0.0507,0.0216,-0.0283,0.0216,13010,13010,1,1
2024-12-12 10:33:01,0.0016,-0.0026,0.9955,-0.0308,-0.09,-0.1182,-0.149,-0.0928,-0.0428,0.0239,-0.0226,0.0339,13010,13003,1,1
2024-12-12 10:33:01,-0.0018,-0.0033,1.0023,-0.1835,-0.1358,0.2635,-0.1899,0.1032,-0.0426,0.0294,-0.0341,0.0513,13010,13003,1,1
2024-12-12 10:33:01,-0.0038,-0.0082,1.0048,-0.0308,-0.0594,-0.0113,-0.4678,0.2144,-0.0437,0.0231,-0.0438,0.0305,13010,13010,1,1
2024-12-12 10:33:01,-0.0023,-0.0072,0.997,0.1371,0.0627,0.0956,-0.4154,0.1319,-0.067,0.008,-0.1173,-0.0082,13010,13010,1,1
2024-12-12 10:33:01,-0.005,-0.0001,0.994,0.1066,-0.2732,0.065,-0.0085,0.287,-0.0638,-0.0049,-0.0835,-0.0168,13010,13010,1,1
2024-12-12 10:33:01,-0.0013,-0.0023,1.0006,0.0303,0.1696,-0.0571,-0.1343,0.0755,-0.1057,-0.0155,-0.1821,-0.0355,13010,13010,1,1
2024-12-12 10:33:01,-0.0055,0.0025,0.9955,0.1982,-0.151,0.1108,0.1461,0.3147,-0.0868,-0.0016,-0.0722,0.0262,13003,13010,1,1
2024-12-12 10:33:02,-0.0028,-0.0065,1.0026,0.0455,0.0169,-0.0876,-0.3712,0.159,-0.0999,0.004,-0.1227,0.0262,13003,13010,1,1
2024-12-12 10:33:02,0.0036,-0.0001,1.0006,-0.0003,-0.1663,0.065,-0.0085,-0.2041,-0.0853,0.0131,-0.069,0.039,13010,13003,1,1
2024-12-12 10:33:02,-0.0023,-0.0023,1.0009,0.0761,-0.2426,0.1108,-0.1343,0.1313,-0.0886,0.0181,-0.0797,0.0518,13010,13003,1,1
2024-12-12 10:33:02,0.0021,-0.0031,1.0031,0.0608,-0.0136,-0.0113,-0.1758,-0.12,-0.0962,0.0188,-0.0974,0.0338,13003,13010,1,1
2024-12-12 10:33:02,-0.0045,-0.0014,0.9945,-0.0461,0.0169,-0.0724,-0.0789,0.2588,-0.093,0.0253,-0.0786,0.0474,13003,13003,1,1
2024-12-12 10:33:02,-0.0011,0.0013,0.9957,0.0303,-0.0747,0.0192,0.0758,0.0618,-0.078,0.0313,-0.0405,0.0467,13003,13003,1,1
2024-12-12 10:33:02,0.0001,-0.0028,1.005,0.1677,-0.0747,0.0956,-0.1615,-0.0084,-0.0675,0.0364,-0.032,0.0488,13003,13002,1,1
2024-12-12 10:33:02,-0.0069,-0.0104,0.9894,-0.0613,0.0016,-0.0724,-0.6024,0.4015,-0.0677,0.0388,-0.0563,0.0533,13010,13010,1,1
2024-12-12 10:33:02,0.0006,-0.0001,1.0031,0.0913,-0.0594,-0.0266,-0.0085,-0.0363,-0.0789,0.0368,-0.091,0.0398,13010,13010,1,1
2024-12-12 10:33:02,-0.0038,-0.0006,1.0145,0.1829,0.2001,0.0192,-0.0359,0.2123,-0.0519,0.0534,-0.0221,0.0748,13010,13010,1,1
2024-12-12 10:33:02,0.0033,-0.0065,1.0018,0.1524,-0.0747,-0.0571,-0.3715,-0.1899,-0.0642,0.054,-0.0719,0.0575,13003,13003,1,1
2024-12-12 10:33:02,-0.0003,-0.0058,1.0128,0.0761,-0.0136,0.1566,-0.326,0.0193,-0.0557,0.0629,-0.0549,0.0808,13010,13010,1,1
2024-12-12 10:33:02,-0.0033,0.0018,1.0023,0.0761,-0.1968,0.0803,0.1032,0.187,-0.0455,0.0732,-0.032,0.1018,13003,13010,1,1
2024-12-12 10:33:02,0.0016,-0.005,1.007,-0.0155,0.0322,-0.0418,-0.2862,-0.0917,-0.0502,0.0489,-0.0597,0.0129,13010,13010,1,1
2024-12-12 10:33:02,-0.0011,-0.0031,0.994,-0.0308,0.1543,-0.1945,-0.1774,0.0619,-0.0578,0.0367,-0.0752,-0.0141,13003,13003,1,1
2024-12-12 10:33:02,0.0014,-0.0043,0.9955,-0.1071,0.1238,-0.1029,-0.2474,-0.0787,-0.0865,0.0348,-0.1449,0.0099,13010,13003,1,1
2024-12-12 10:33:02,-0.0016,0.0035,0.9948,0.1219,-0.1663,-0.0571,0.2024,0.09,-0.0722,0.0372,-0.0665,0.0335,13010,13010,1,1
2024-12-12 10:33:02,-0.0016,-0.0014,1.0057,-0.1682,0.0016,-0.1182,-0.078,0.089,-0.0604,0.0181,-0.0341,-0.0184,13010,13010,1,1
2024-12-12 10:33:02,-0.0018,-0.0011,0.9977,-0.1529,-0.09,-0.0876,-0.0646,0.1037,-0.0607,0.0182,-0.0523,0.0099,13010,13003,1,1
2024-12-12 10:33:02,-0.0064,0.0016,0.997,-0.0155,-0.0747,0.065,0.0897,0.3704,-0.0439,0.0219,-0.0088,0.0386,13010,13003,1,1
2024-12-12 10:33:03,-0.005,0.0006,1.0011,-0.1071,0.0169,-0.0418,0.0335,0.285,-0.0537,0.0269,-0.056,0.0427,13003,13010,1,1
2024-12-12 10:33:03,-0.0045,-0.0028,0.997,-0.0919,0.0933,0.0956,-0.1628,0.2581,-0.0486,0.0321,-0.0457,0.0418,13010,13010,1,1
2024-12-12 10:33:03,-0.0011,-0.0006,0.9906,0.0303,-0.0442,0.0192,-0.0368,0.0621,-0.0452,0.0312,-0.0331,0.0281,13010,13010,1,1
2024-12-12 10:33:03,0.0014,-0.0043,0.9974,-0.0613,0.1085,0.1108,-0.2469,-0.0786,-0.0558,0.0332,-0.0898,0.0348,13010,13010,1,1
2024-12-12 10:33:03,0.0023,-0.0036,1.0057,-0.0003,-0.1205,-0.0113,-0.2031,-0.1335,-0.0512,0.0336,-0.0628,0.0351,13003,13003,1,1
2024-12-12 10:33:03,0.0041,-0.0006,0.9987,-0.0155,0.0933,-0.1029,-0.0365,-0.2325,-0.0379,0.0156,-0.0212,-0.0146,13003,13010,1,1
2024-12-12 10:33:03,0.0023,-0.0041,1.0023,0.1982,0.0322,0.1108,-0.2317,-0.134,-0.0421,0.0018,-0.0579,-0.0459,13010,13003,1,1
2024-12-12 10:33:03,0.0023,-0.0041,1.0055,-0.0461,-0.09,0.0498,-0.231,-0.1336,-0.0505,0.0124,-0.0823,-0.0022,13010,13010,1,1
2024-12-12 10:33:03,-0.0021,0.003,1.0028,-0.1682,0.1391,0.1108,0.1729,0.1171,-0.0415,0.0021,-0.041,-0.0171,13010,13002,1,1
2024-12-12 10:33:03,-0.0006,-0.0055,1.0101,0.0303,-0.1052,0.0956,-0.313,0.0332,-0.0492,0.0203,-0.0675,0.0465,13003,13010,1,1
2024-12-12 10:33:03,-0.0055,-0.0014,1.0004,-0.1071,-0.0136,0.2024,-0.0784,0.3132,-0.048,0.0226,-0.0528,0.0382,13003,13003,1,1
2024-12-12 10:33:03,0.0001,-0.0033,0.9967,0.1829,-0.2121,-0.1945,-0.191,-0.0084,-0.0542,0.024,-0.0784,0.0346,13010,13010,1,1
2024-12-12 10:33:03,0.005,0.0045,0.9996,-0.1071,-0.151,-0.0418,0.2574,-0.2883,-0.0535,-0.0007,-0.0609,-0.0385,13010,13003,1,1
2024-12-12 10:33:03,-0.0028,0.0028,1.0026,0.0913,-0.1052,0.1719,0.159,0.159,-0.0471,0.0108,-0.0413,0.0159,13010,13010,1,1
2024-12-12 10:33:03,-0.0023,0.0003,0.9962,-0.0003,-0.0594,0.2177,0.0196,0.132,-0.0383,0.002,-0.0199,-0.0006,13010,13003,1,1
2024-12-12 10:33:03,-0.0038,0.003,1.0033,-0.1224,0.2001,-0.0876,0.1728,0.2147,-0.0345,0.0332,-0.0155,0.0789,13010,13003,1,1
2024-12-12 10:33:03,0.0075,-0.0006,1.0131,-0.0003,0.2459,0.1872,-0.036,-0.4225,-0.0356,0.04,-0.031,0.0667,13010,13010,1,1
2024-12-12 10:33:03,0.0016,0.0018,1.0048,0.0455,0.1085,0.1261,0.1029,-0.0919,-0.0499,0.0231,-0.0792,0.0049,13010,13010,1,1
2024-12-12 10:33:03,0.0001,0.0047,1.0021,-0.0613,-0.0747,-0.0266,0.2707,-0.0084,-0.05,0.037,-0.06,0.0439,13010,13010,1,1
2024-12-12 10:33:04,-0.0023,-0.0065,0.9994,0.0913,-0.0747,0.2177,-0.3724,0.1315,-0.0537,0.0364,-0.0719,0.0398,13003,13003,1,1
2024-12-12 10:33:04,0.0006,0.004,1.0082,-0.1987,-0.0747,0.0345,0.2275,-0.0361,-0.0451,0.037,-0.023,0.0385,13003,13003,1,1
2024-12-12 10:33:04,-0.0001,-0.0053,0.9982,0.015,-0.0136,-0.0418,-0.3028,0.0056,-0.0407,0.0257,-0.0254,0.0045,13010,13003,1,1
2024-12-12 10:33:04,-0.0001,0.0003,0.9901,0.0913,-0.151,-0.0418,0.0197,0.0056,-0.0509,0.0413,-0.0565,0.0645,13010,13010,1,1
2024-12-12 10:33:04,-0.0011,-0.0006,0.9974,-0.1071,-0.0594,0.0345,-0.0365,0.0617,-0.0474,0.0358,-0.0499,0.0378,13010,13010,1,1
2024-12-12 10:33:04,0.0014,0.0023,0.9921,-0.1377,0.0475,0.0498,0.1325,-0.079,-0.044,0.0327,-0.0381,0.0302,13003,13010,1,1
2024-12-12 10:33:04,-0.0052,-0.0006,1.0026,-0.0003,-0.0289,-0.2403,-0.0364,0.2985,-0.0478,0.0395,-0.0416,0.0463,13010,13010,1,1
2024-12-12 10:33:04,0.0043,0.002,1.0021,0.0913,-0.1663,-0.0418,0.1172,-0.2457,-0.0458,0.0551,-0.0389,0.0744,13010,13003,1,1
2024-12-12 10:33:04,-0.0006,0.0016,1.004,-0.0766,0.078,0.0498,0.0891,0.0334,-0.0506,0.0518,-0.0567,0.0573,13010,13010,1,1
2024-12-12 10:33:04,-0.0042,-0.005,0.9999,-0.1071,-0.1968,-0.1182,-0.2883,0.2434,-0.0737,0.0265,-0.1199,-0.0075,13010,13010,1,1
2024-12-12 10:33:04,0.0055,0.0013,0.9984,0.015,0.1391,0.004,0.0756,-0.3167,-0.0713,0.0085,-0.0893,-0.0359,13010,13002,1,1
2024-12-12 10:33:04,-0.0013,-0.0006,0.9999,0.0455,0.0016,-0.225,-0.0365,0.0755,-0.0626,0.0003,-0.0509,-0.0292,13003,13003,1,1
2024-12-12 10:33:04,-0.0025,-0.0004,1.007,-0.0003,0.1391,0.0192,-0.0223,0.1444,-0.0804,0.0134,-0.0914,0.0254,13010,13010,1,1
2024-12-12 10:33:04,-0.0006,0.0003,0.9967,-0.0461,0.0169,-0.0876,0.0196,0.0337,-0.0798,0.0312,-0.0726,0.075,13010,13010,1,1
2024-12-12 10:33:04,0.0053,-0.0014,1.007,0.0608,-0.09,0.065,-0.0779,-0.3001,-0.0671,0.01,-0.0375,-0.0138,13003,13003,1,1
2024-12-12 10:33:04,-0.0001,0.0016,0.997,-0.1071,0.0016,0.0956,0.0897,0.0056,-0.053,0.0018,-0.0173,-0.027,13003,13010,1,1
2024-12-12 10:33:04,-0.0038,-0.0028,1.0119,-0.0155,0.0169,-0.1182,-0.1604,0.2129,-0.0441,0.0189,-0.0151,0.0392,13010,13003,1,1
2024-12-12 10:33:04,-0.0016,-0.0016,1.0065,0.1524,-0.1052,0.2177,-0.0918,0.0889,-0.0472,0.0253,-0.0388,0.0577,13010,13010,1,1
2024-12-12 10:33:04,-0.0042,-0.0043,1.0021,0.0455,0.1543,-0.2098,-0.2458,0.2429,-0.0553,0.0209,-0.0775,0.0302,13010,13003,1,1
2024-12-12 10:33:05,0.0023,0.0001,0.9987,-0.1071,0.2459,0.1872,0.0055,-0.1345,-0.046,0.0311,-0.0416,0.0568,13010,13003,1,1
2024-12-12 10:33:05,-0.0023,-0.0004,0.9974,-0.1224,-0.0136,-0.0571,-0.0225,0.1318,-0.0316,0.0434,-0.0072,0.0752,13003,13003,1,1
2024-12-12 10:33:05,0.0014,-0.0016,0.9999,0.0608,-0.0289,-0.0571,-0.0924,-0.0784,-0.0375,0.0391,-0.0402,0.0411,13010,13003,1,1
2024-12-12 10:33:05,0.0004,0.0013,0.9955,-0.0613,0.0627,-0.0724,0.0758,-0.0225,-0.0401,0.0345,-0.0382,0.029,13010,13003,1,1
2024-12-12 10:33:05,-0.0021,0.0038,0.9999,0.0455,-0.1205,0.1261,0.2154,0.1175,-0.0355,0.0282,-0.0258,0.0185,13010,13010,1,1
2024-12-12 10:33:05,0.0016,0.0006,0.9984,-0.0613,0.2154,0.0345,0.0335,-0.0925,-0.0404,0.0352,-0.0418,0.0335,13003,13010,1,1
2024-12-12 10:33:05,-0.0038,-0.0021,1.0055,0.1219,0.0169,-0.0113,-0.1197,0.2142,-0.0531,0.0368,-0.088,0.0445,13010,13003,1,1
2024-12-12 10:33:05,0.005,-0.0038,0.9916,-0.0613,0.078,0.0192,-0.2202,-0.2906,-0.0627,0.0172,-0.0924,-0.0169,13010,13003,1,1
2024-12-12 10:33:05,0.005,-0.0009,0.9996,0.0303,-0.3495,0.004,-0.0505,-0.2883,-0.0683,0.0117,-0.0879,-0.0184,13010,13010,1,1
2024-12-12 10:33:05,-0.0038,0.0052,1.0011,-0.0766,0.0169,0.065,0.2989,0.2151,-0.0409,0.033,-0.0022,0.0554,13010,13010,1,1
2024-12-12 10:33:05,-0.0011,-0.0014,1.0011,0.0761,0.2154,-0.1334,-0.0783,0.0615,-0.0461,0.0425,-0.0473,0.0588,13010,13010,1,1
2024-12-12 10:33:05,-0.0023,0.0001,1.007,-0.0155,-0.0289,0.065,0.0055,0.1306,-0.0475,0.0438,-0.0484,0.0607,13010,13003,1,1
2024-12-12 10:33:05,-0.0057,-0.0014,0.9984,0.1066,0.1085,-0.1029,-0.0785,0.3278,-0.0359,0.0665,-0.0278,0.1198,13010,13010,1,1
2024-12-12 10:33:05,-0.0025,-0.0043,1.0094,0.1524,0.078,0.065,-0.244,0.1441,-0.0437,0.0725,-0.0597,0.1048,13011,13010,1,1
2024-12-12 10:33:05,-0.0006,-0.0001,1.0028,0.1524,-0.0594,-0.0571,-0.0085,0.0334,-0.0504,0.0637,-0.0717,0.0598,13010,13010,1,1
2024-12-12 10:33:05,-0.0025,0.0008,1.0001,-0.0613,-0.0594,-0.2098,0.0475,0.1454,-0.0291,0.078,-0.0066,0.0986,13003,13010,1,1
2024-12-12 10:33:05,-0.003,-0.0014,1.005,0.0455,-0.2121,0.0803,-0.078,0.1726,-0.0491,0.0695,-0.0748,0.07,13010,13003,1,1
2024-12-12 10:33:05,0.0036,0.0042,0.9972,-0.0613,-0.0136,-0.0418,0.244,-0.2048,-0.0466,0.0533,-0.0503,0.0176,13003,13003,1,1
2024-12-12 10:33:05,-0.003,0.0006,0.9926,-0.0766,0.1391,0.1414,0.0337,0.1747,-0.0496,0.0797,-0.0459,0.0955,13010,13010,1,1
2024-12-12 10:33:06,0.0045,0.0018,1.0009,0.0455,0.0016,-0.1029,0.1033,-0.26,-0.0421,0.0563,-0.032,0.0082,13010,13010,1,1
2024-12-12 10:33:06,0.0014,0.0001,1.0033,0.0608,-0.2579,-0.0571,0.0055,-0.0781,-0.0384,0.0644,-0.018,0.0487,13003,13003,1,1
2024-12-12 10:33:06,0.0004,-0.0092,1.0009,0.1219,-0.0289,-0.0266,-0.5256,-0.0224,-0.0585,0.066,-0.0964,0.0486,13010,13003,1,1
2024-12-12 10:33:06,-0.005,0.0023,0.9982,0.0608,-0.09,0.1872,0.1316,0.2858,-0.0376,0.0769,-0.0222,0.106,13003,13010,1,1
2024-12-12 10:33:06,0.006,-0.0041,1.0001,-0.0613,0.0933,0.065,-0.2323,-0.3441,-0.0362,0.0413,-0.0298,-0.0187,13010,13010,1,1
2024-12-12 10:33:06,0.0065,0.0023,0.9945,-0.0766,-0.0594,-0.0113,0.1321,-0.3742,-0.0309,0.0369,-0.0222,0.0028,13010,13003,1,1
2024-12-12 10:33:06,0.0016,-0.0058,0.9972,0.1982,-0.0442,-0.0571,-0.3311,-0.0926,-0.0293,0.0277,-0.0344,-0.0045,13003,13003,1,1
2024-12-12 10:33:06,-0.0057,-0.0014,1.0006,0.1219,-0.0594,0.1261,-0.0784,0.3271,-0.0438,0.0249,-0.084,0.0223,13003,13003,1,1
2024-12-12 10:33:06,-0.0021,-0.0028,0.996,-0.0613,0.0627,-0.1182,-0.163,0.1179,-0.0303,0.016,-0.0281,-0.0,13010,13003,1,1
2024-12-12 10:33:06,0.0006,0.0018,0.9999,-0.2598,0.1391,-0.1029,0.1034,-0.0364,-0.0303,0.0034,-0.0349,-0.0184,13010,13010,1,1
2024-12-12 10:33:06,0.0019,0.0006,0.9987,-0.0461,0.0322,0.0345,0.0335,-0.1065,-0.0073,0.0181,0.0322,0.0349,13010,13010,1,1
2024-12-12 10:33:06,-0.0023,0.0023,0.9972,-0.214,0.078,-0.0113,0.1318,0.1318,-0.0147,0.0318,-0.0094,0.075,13003,13003,1,1
2024-12-12 10:33:06,-0.0003,0.0052,0.997,0.015,0.0475,-0.0571,0.3002,0.0196,-0.0123,0.0444,-0.0101,0.0803,13003,13003,1,1
2024-12-12 10:33:06,0.0009,-0.0004,1.0062,-0.1835,0.1085,0.1261,-0.0223,-0.0501,-0.0207,0.0419,-0.0386,0.0496,13003,13003,1,1
2024-12-12 10:33:06,-0.0025,-0.0036,1.0082,0.1066,0.1696,0.0192,-0.2027,0.1443,-0.0441,0.0691,-0.1004,0.1123,13010,13010,1,1
2024-12-12 10:33:06,-0.0038,-0.0043,0.9945,-0.1071,0.0322,-0.1182,-0.2476,0.2166,-0.0637,0.0831,-0.1311,0.1294,13010,13010,1,1
2024-12-12 10:33:06,-0.0021,0.0028,1.0057,-0.0613,-0.0594,-0.2403,0.1585,0.1168,-0.0533,0.07,-0.0728,0.0684,13003,13003,1,1
2024-12-12 10:33:06,-0.0011,0.0035,1.0072,0.015,-0.0136,0.0498,0.1999,0.0611,-0.04,0.0406,-0.0302,-0.0102,13010,13011,1,1
2024-12-12 10:33:06,-0.0008,0.0016,1.0043,0.1982,0.1391,-0.0724,0.0891,0.0473,-0.0464,0.0366,-0.0481,0.0073,13010,13010,1,1
2024-12-12 10:33:07,-0.0072,-0.0004,1.0055,-0.1071,0.1391,0.0803,-0.0223,0.409,-0.0511,0.0503,-0.0587,0.0627,13003,13003,1,1
2024-12-12 10:33:07,0.0016,0.003,1.0018,0.1066,0.0627,-0.164,0.1731,-0.0922,-0.0324,0.0585,-0.0075,0.0733,13003,13003,1,1
2024-12-12 10:33:07,-0.0035,-0.0065,1.0023,-0.1071,-0.0747,0.0956,-0.3713,0.2009,-0.0407,0.0628,-0.0466,0.0786,13000,13003,1,1
2024-12-12 10:33:07,-0.0047,-0.0045,1.0026,0.0761,0.078,0.0192,-0.2596,0.2706,-0.0443,0.0756,-0.0598,0.1041,13010,13003,1,1
2024-12-12 10:33:07,-0.0055,-0.0016,1.0087,0.0455,0.078,-0.2708,-0.0916,0.3106,-0.0462,0.0642,-0.0482,0.0615,13010,13010,1,1
2024-12-12 10:33:07,-0.0018,-0.0031,0.9994,-0.0155,-0.1205,-0.1487,-0.1764,0.1035,-0.0454,0.0607,-0.0393,0.0583,13010,13010,1,1
2024-12-12 10:33:07,0.0014,-0.0063,1.0011,-0.0766,0.1238,0.0803,-0.3578,-0.0783,-0.0729,0.0553,-0.1214,0.0326,13010,13010,1,1
2024-12-12 10:33:07,-0.0018,-0.0031,0.9974,0.0761,0.0475,-0.3624,-0.1768,0.1037,-0.0602,0.0769,-0.0587,0.0978,13010,13010,1,1
2024-12-12 10:33:07,-0.0055,0.0016,1.0023,-0.0919,-0.0442,0.2024,0.0892,0.3126,-0.072,0.0717,-0.0789,0.0836,13003,13010,1,1
2024-12-12 10:33:07,0.0043,-0.0033,0.9953,-0.0003,0.0933,-0.1029,-0.1912,-0.2474,-0.0699,0.0696,-0.0575,0.0655,13010,13010,1,1
2024-12-12 10:33:07,-0.004,-0.0043,0.9965,-0.0919,-0.1358,0.2024,-0.2471,0.2302,-0.0773,0.0546,-0.0836,0.0339,13010,13003,1,1
2024-12-12 10:33:07,0.0009,0.0018,1.0014,-0.0919,-0.2579,0.0803,0.1033,-0.0503,-0.0859,0.0504,-0.0929,0.0392,13003,13010,1,1
2024-12-12 10:33:07,0.0021,-0.008,1.0087,0.0455,-0.2274,-0.0724,-0.4522,-0.1193,-0.0802,0.0486,-0.0775,0.0378,13010,13003,1,1
2024-12-12 10:33:07,-0.0008,-0.0009,1.0016,-0.1224,0.0933,0.0498,-0.0504,0.0475,-0.0871,0.0344,-0.0935,0.011,13010,13002,1,1
2024-12-12 10:33:07,0.0001,0.0042,0.9974,0.0913,-0.0289,-0.0571,0.2439,-0.0084,-0.0757,0.0343,-0.061,0.0254,13010,13010,1,1
2024-12-12 10:33:07,-0.0008,-0.0009,1.0067,-0.0461,-0.1052,0.065,-0.0501,0.0472,-0.0816,0.0131,-0.0808,-0.0199,13010,13003,1,1
2024-12-12 10:33:07,0.0001,-0.0004,0.9945,0.0455,0.1085,0.1872,-0.0226,-0.0085,-0.0804,-0.0005,-0.0704,-0.0389,13010,13010,1,1
2024-12-12 10:33:07,-0.0052,-0.0001,1.004,-0.1987,0.0475,0.3398,-0.0084,0.2981,-0.0736,0.0025,-0.0458,-0.0021,13003,13003,1,1
2024-12-12 10:33:07,0.0009,-0.0031,0.9989,-0.2293,-0.1663,0.0803,-0.1765,-0.0504,-0.0737,0.0071,-0.0609,0.0188,13010,13010,1,1
2024-12-12 10:33:07,0.0067,0.0025,0.9992,-0.0461,-0.2579,-0.0724,0.1455,-0.3864,-0.0552,-0.0049,-0.0132,-0.0194,13010,13003,1,1
2024-12-12 10:33:08,-0.0018,-0.0001,1.0004,-0.0461,-0.1205,0.1566,-0.0085,0.1034,-0.0525,-0.0171,-0.0242,-0.0323,13010,13010,1,1
2024-12-12 10:33:08,-0.0052,0.0023,1.0014,0.1677,-0.0442,-0.0266,0.1312,0.2989,-0.0512,-0.0152,-0.039,-0.0066,13010,13010,1,1
2024-12-12 10:33:08,0.0033,-0.0038,0.9918,-0.0613,-0.0136,0.0956,-0.2201,-0.1918,-0.0487,-0.0026,-0.0425,0.0344,13010,13003,1,1
2024-12-12 10:33:08,-0.0018,0.0023,1.0014,-0.0155,0.078,-0.0418,0.1312,0.1033,-0.0597,0.0008,-0.0754,0.035,13010,13003,1,1
2024-12-12 10:33:08,-0.0021,0.0001,1.004,-0.0613,0.2765,0.0498,0.0055,0.117,-0.0464,0.0145,-0.0329,0.0564,13010,13010,1,1
2024-12-12 10:33:08,-0.0008,-0.0055,0.9977,-0.1377,0.1391,0.1108,-0.3169,0.0476,-0.0646,0.0197,-0.092,0.057,13010,13002,1,1
2024-12-12 10:33:08,-0.0047,-0.0004,1.0001,-0.0003,-0.1052,-0.0113,-0.0225,0.2713,-0.0658,0.0298,-0.0837,0.0682,13010,13010,1,1
2024-12-12 10:33:08,0.0009,0.0013,1.0014,-0.1987,-0.1358,0.2635,0.0754,-0.0503,-0.0613,0.034,-0.0586,0.0672,13002,13010,1,1
2024-12-12 10:33:08,0.0065,0.0023,1.0048,-0.0766,-0.0442,0.3398,0.1308,-0.3703,-0.0538,0.0372,-0.0386,0.0492,13010,13003,1,1
2024-12-12 10:33:08,0.0043,-0.0028,0.994,-0.0308,-0.0289,0.0803,-0.1633,-0.2477,-0.056,0.0227,-0.0442,-0.0011,13010,13010,1,1
2024-12-12 10:33:08,0.0026,-0.0053,0.9955,-0.1071,0.1849,-0.0571,-0.3036,-0.149,-0.0545,0.0256,-0.0478,0.0104,13010,13010,1,1
2024-12-12 10:33:08,-0.003,-0.0011,1.0028,-0.1682,0.0322,0.0498,-0.0642,0.1729,-0.0701,0.0365,-0.0936,0.0513,13010,13010,1,1
2024-12-12 10:33:08,0.0004,0.0003,0.9972,-0.0003,-0.0594,-0.0724,0.0196,-0.0225,-0.0403,0.0221,-0.0048,0.0054,13010,13003,1,1
2024-12-12 10:33:08,-0.0011,-0.005,1.0004,-0.0308,0.0627,0.0498,-0.2881,0.0615,-0.0648,0.0423,-0.0869,0.0711,13003,13003,1,1
2024-12-12 10:33:08,0.0026,-0.0004,1.0067,-0.0155,0.078,0.0192,-0.0223,-0.1473,-0.0456,0.0329,-0.0108,0.0213,13010,13010,1,1
2024-12-12 10:33:08,-0.0021,-0.0014,1.0101,0.1524,0.0016,0.0803,-0.0776,0.1163,-0.0403,0.0379,-0.0239,0.0515,13010,13010,1,1
2024-12-12 10:33:08,0.0028,0.004,0.9999,-0.1377,-0.1816,-0.0266,0.2293,-0.1623,-0.0256,0.0433,0.0162,0.0578,13003,13010,1,1
2024-12-12 10:33:08,-0.0062,0.0035,1.0067,-0.0461,0.0169,0.2482,0.2,0.3529,-0.0041,0.0392,0.0503,0.0495,13010,13003,1,1
2024-12-12 10:33:08,0.0001,-0.0043,0.9909,-0.0766,-0.1816,0.1261,-0.2485,-0.0085,-0.0426,0.0501,-0.0976,0.0764,13003,13010,1,1
2024-12-12 10:33:09,0.0009,0.0018,0.9957,0.015,-0.151,-0.1945,0.1039,-0.0506,-0.0387,0.0345,-0.0597,0.0266,13010,13010,1,1
2024-12-12 10:33:09,0.0009,-0.0019,1.0072,-0.0919,-0.3648,-0.1334,-0.1056,-0.05,-0.0486,0.0154,-0.078,-0.022,13010,13010,1,1
2024-12-12 10:33:09,0.0021,-0.0021,0.9984,-0.0003,0.1391,-0.1792,-0.1206,-0.1205,-0.0598,0.0131,-0.0992,-0.006,13003,13010,1,1
2024-12-12 10:33:09,0.0009,0.0033,0.9911,0.015,0.0322,-0.0266,0.189,-0.0508,-0.051,-0.0018,-0.0543,-0.0374,13010,13010,1,1
2024-12-12 10:33:09,-0.0003,-0.0048,1.0111,-0.0919,-0.1816,-0.1029,-0.2712,0.0193,-0.0616,-0.0044,-0.0852,-0.0162,13010,13003,1,1
2024-12-12 10:33:09,-0.004,-0.0038,0.9926,0.0303,-0.0747,0.1261,-0.2199,0.2311,-0.0679,0.0064,-0.0919,0.0282,13010,13003,1,1
2024-12-12 10:33:09,-0.0069,-0.0016,1.0026,-0.0766,0.0016,0.065,-0.0922,0.3962,-0.0769,0.01,-0.0992,0.0316,13010,13010,1,1
2024-12-12 10:33:09,-0.0055,-0.0026,0.9916,-0.0461,0.2307,0.0345,-0.1496,0.316,-0.0665,0.0436,-0.0531,0.1057,13003,13003,1,1
2024-12-12 10:33:09,-0.0008,-0.0031,1.0018,0.0303,0.078,-0.0113,-0.176,0.0474,-0.0593,0.0367,-0.0448,0.0612,13010,13003,1,1
2024-12-12 10:33:09,0.0026,0.0013,1.0018,-0.2293,-0.09,-0.1487,0.0753,-0.148,-0.0592,0.0313,-0.0476,0.0329,13003,13010,1,1
2024-12-12 10:33:09,0.0055,0.0016,0.9957,0.1677,0.2154,-0.164,0.0898,-0.3175,-0.0486,0.0428,-0.0357,0.0466,13010,13002,1,1
2024-12-12 10:33:09,-0.0055,-0.0031,1.0075,-0.0766,-0.1358,-0.164,-0.175,0.311,-0.0444,0.0555,-0.0337,0.0794,13010,13003,1,1
2024-12-12 10:33:09,-0.0028,-0.0075,0.9977,0.0455,-0.09,-0.1792,-0.4291,0.1598,-0.0463,0.0556,-0.0553,0.0565,13010,13003,1,1
2024-12-12 10:33:09,0.0006,-0.0036,1.0009,0.0608,-0.0747,-0.0571,-0.2041,-0.0364,-0.0645,0.0509,-0.1043,0.0369,13010,13010,1,1
2024-12-12 10:33:09,0.0016,-0.0036,1.0023,-0.0766,0.1238,-0.0724,-0.2038,-0.0921,-0.0524,0.0408,-0.049,0.0136,13003,13003,1,1
2024-12-12 10:33:09,0.0001,-0.006,1.0009,0.0455,-0.3648,-0.0876,-0.3439,-0.0084,-0.0579,0.061,-0.0715,0.0792,13010,13003,1,1
2024-12-12 10:33:09,0.0023,0.0011,0.9992,-0.1682,0.0322,0.1261,0.0615,-0.1344,-0.0562,0.0597,-0.0556,0.0587,13010,13003,1,1
2024-12-12 10:33:09,-0.0028,-0.0067,0.9887,-0.0461,-0.2121,-0.0266,-0.3906,0.1613,-0.0696,0.0742,-0.1002,0.0958,13010,13003,1,1
2024-12-12 10:33:09,0.0063,0.003,0.9953,-0.0308,0.0933,0.065,0.1742,-0.3598,-0.0454,0.0656,-0.0119,0.0486,13010,13002,1,1
2024-12-12 10:33:10,0.0053,0.0047,0.9945,0.0303,-0.09,-0.0113,0.2728,-0.3038,-0.0332,0.0633,0.0088,0.0488,13010,13010,1,1
2024-12-12 10:33:10,-0.0011,0.0016,0.9989,-0.1071,-0.09,0.0956,0.0895,0.0616,-0.0275,0.0698,0.0045,0.0673,13010,13003,1,1
2024-12-12 10:33:10,-0.0001,-0.0021,0.9974,-0.1987,0.0169,0.004,-0.1207,0.0056,-0.036,0.077,-0.0374,0.0806,13010,13010,1,1
2024-12-12 10:33:10,-0.0008,-0.0006,0.9945,-0.1224,-0.09,0.065,-0.0367,0.0478,-0.0565,0.0665,-0.0884,0.0457,13010,13000,1,1
2024-12-12 10:33:10,-0.0069,-0.0026,1.0033,-0.0308,0.0475,-0.0113,-0.1479,0.3959,-0.0507,0.0592,-0.0485,0.0349,13010,13010,1,1
2024-12-12 10:33:10,0.0033,-0.005,1.0038,-0.0155,0.0016,0.4009,-0.2871,-0.1895,-0.059,0.0629,-0.0766,0.0527,13003,13003,1,1
2024-12-12 10:33:10,-0.0079,0.0003,0.9965,0.015,0.0169,-0.1792,0.0196,0.4548,-0.0491,0.0653,-0.0433,0.0633,13010,13010,1,1
2024-12-12 10:33:10,-0.0062,-0.0021,0.9999,-0.0919,0.0475,0.3856,-0.1204,0.3553,-0.0478,0.0824,-0.0451,0.1057,13010,13010,1,1
2024-12-12 10:33:10,-0.0006,-0.0006,0.9957,0.1066,0.1085,0.2024,-0.0366,0.0337,-0.0448,0.0831,-0.0318,0.0992,13003,13003,1,1
2024-12-12 10:33:10,-0.0021,0.003,1.005,-0.1224,-0.0136,0.0345,0.1725,0.1169,-0.042,0.0997,-0.0226,0.1279,13010,13003,1,1
2024-12-12 10:33:10,0.0036,0.002,0.9931,-0.1071,-0.1968,0.0345,0.1182,-0.2057,-0.0302,0.0609,0.0029,-0.0007,13010,13003,1,1
2024-12-12 10:33:10,-0.0028,0.0023,1.0057,-0.0308,0.1085,0.2177,0.1307,0.1585,-0.0426,0.067,-0.036,0.0531,13010,13010,1,1
2024-12-12 10:33:10,-0.0045,0.0018,0.9974,-0.214,-0.2884,-0.0571,0.1037,0.258,-0.0347,0.0719,-0.0209,0.0859,13010,13010,1,1
2024-12-12 10:33:10,-0.004,0.0047,0.9977,0.0608,0.0475,0.065,0.2719,0.2299,-0.0266,0.0572,-0.0053,0.0558,13010,13010,1,1
2024-12-12 10:33:10,0.0023,0.0006,0.9918,-0.0308,0.0016,0.1261,0.0338,-0.1354,-0.0357,0.0234,-0.0366,-0.0289,13010,13003,1,1
2024-12-12 10:33:10,-0.0021,0.0016,1.0009,-0.1529,0.1849,0.1414,0.0894,0.1174,-0.0355,0.0259,-0.0328,0.0093,13010,13010,1,1
2024-12-12 10:33:10,0.0021,0.0011,0.9977,-0.0461,-0.0442,-0.2708,0.0616,-0.1206,-0.0376,0.0186,-0.0459,-0.0003,13010,13010,1,1
2024-12-12 10:33:10,0.0038,0.0018,0.9965,-0.1071,-0.0289,-0.0418,0.1038,-0.219,-0.0334,0.0087,-0.0331,-0.0058,13010,13010,1,1
2024-12-12 10:33:10,0.0009,-0.0082,0.9896,-0.0155,0.0016,-0.0113,-0.475,-0.0509,-0.0417,0.0195,-0.0695,0.0298,13010,13002,1,1
2024-12-12 10:33:11,0.0048,0.0008,1.0055,0.0761,0.0627,-0.1945,0.0472,-0.2727,-0.0495,0.0382,-0.0778,0.0725,13003,13010,1,1
2024-12-12 10:33:11,0.0014,-0.005,1.0036,-0.0003,-0.151,-0.0724,-0.2872,-0.0781,-0.0386,0.0454,-0.0354,0.0805,13003,13010,1,1
2024-12-12 10:33:11,-0.0028,0.0008,1.0072,0.1677,-0.0289,0.065,0.0471,0.1583,-0.0473,0.0444,-0.0638,0.0564,13010,13010,1,1
2024-12-12 10:33:11,-0.0038,0.0013,0.9996,0.0608,-0.0594,-0.0113,0.0755,0.2155,-0.0573,0.0511,-0.0795,0.0627,13010,13010,1,1
2024-12-12 10:33:11,0.0014,-0.0023,0.9987,0.2135,-0.1663,-0.0418,-0.1345,-0.0785,-0.0523,0.0251,-0.0629,-0.0139,13010,13010,1,1
2024-12-12 10:33:11,-0.0067,0.0001,0.9972,-0.0003,0.0475,0.1108,0.0055,0.3843,-0.07,0.0228,-0.1057,0.0097,13010,13010,1,1
2024-12-12 10:33:11,-0.0045,0.0008,0.9992,0.2745,0.0627,-0.0724,0.0475,0.2576,-0.0576,0.0285,-0.0465,0.0263,13010,13003,1,1
2024-12-12 10:33:11,0.0041,-0.0001,1.0038,-0.0766,-0.0136,-0.0266,-0.0084,-0.2314,-0.0411,0.0062,-0.0032,-0.0417,13010,13003,1,1
2024-12-12 10:33:11,0.0033,-0.0063,1.0026,-0.0613,-0.1663,-0.0113,-0.3573,-0.1898,-0.0469,0.0014,-0.0448,-0.0273,13010,13010,1,1
2024-12-12 10:33:11,0.0023,-0.0038,0.9979,-0.1071,-0.1968,0.004,-0.2188,-0.1346,-0.0436,-0.0078,-0.0436,-0.038,13003,13003,1,1
2024-12-12 10:33:11,0.0001,0.002,0.9974,0.0913,0.0933,0.233,0.1177,-0.0084,-0.0378,-0.0059,-0.0196,-0.024,13003,13010,1,1
2024-12-12 10:33:11,0.0011,0.0001,1.0038,-0.1529,-0.0747,-0.0113,0.0055,-0.0641,-0.0393,-0.0148,-0.0363,-0.0371,13010,13003,1,1
2024-12-12 10:33:11,0.0067,0.003,1.0048,0.1677,-0.0594,-0.1792,0.1725,-0.3843,-0.0563,-0.0087,-0.0865,0.0017,13010,13003,1,1
2024-12-12 10:33:11,-0.0057,0.0001,0.9926,0.1371,0.0169,-0.0418,0.0056,0.3297,-0.0555,0.018,-0.0647,0.0763,13010,13010,1,1
2024-12-12 10:33:11,-0.0011,0.0016,0.9955,0.1219,-0.0442,0.1261,0.0898,0.0618,-0.0592,0.0251,-0.067,0.0725,13010,13003,1,1
2024-12-12 10:33:11,0.0016,0.003,0.9957,0.015,-0.0136,0.0956,0.1741,-0.0927,-0.0401,0.0182,-0.0056,0.0346,13010,13010,1,1
2024-12-12 10:33:11,-0.0021,-0.0045,1.0011,0.0608,0.0933,-0.0876,-0.26,0.1173,-0.0543,0.0309,-0.0643,0.0634,13011,13003,1,1
2024-12-12 10:33:11,-0.0003,-0.0043,0.9996,-0.1224,0.2154,-0.0876,-0.2464,0.0196,-0.0566,0.0358,-0.0744,0.0683,13010,13010,1,1
2024-12-12 10:33:11,-0.0006,-0.0023,0.9896,0.0455,0.0475,0.0956,-0.1358,0.0339,-0.0497,0.0384,-0.0428,0.051,13010,13010,1,1
2024-12-12 10:33:11,-0.0038,0.0003,1.0028,0.1982,-0.1816,0.1108,0.0194,0.2148,-0.0227,0.0396,0.0192,0.049,13010,13003,1,1
2024-12-12 10:33:12,0.0016,-0.0019,0.994,0.0761,0.1238,0.004,-0.107,-0.0929,-0.0228,0.0377,-0.0006,0.0346,13003,13010,1,1
2024-12-12 10:33:12,-0.0038,-0.0016,1.0031,0.1524,0.1543,0.3398,-0.0921,0.2147,-0.0297,0.045,-0.0378,0.0517,13010,13010,1,1
2024-12-12 10:33:12,-0.0072,-0.0016,0.9967,-0.0461,0.307,-0.0571,-0.0927,0.4126,-0.0405,0.049,-0.0617,0.053,13010,13003,1,1
2024-12-12 10:33:12,-0.0057,0.0001,1.0033,-0.0766,-0.1663,0.065,0.0055,0.3262,-0.0355,0.0638,-0.0382,0.0992,13010,13002,1,1
2024-12-12 10:33:12,0.0011,0.0028,0.9899,-0.1835,0.0475,-0.1945,0.161,-0.065,-0.0308,0.0528,-0.0154,0.0476,13010,13003,1,1
2024-12-12 10:33:12,0.0043,-0.0058,1.007,0.0608,0.0016,0.0498,-0.3279,-0.2445,-0.0404,0.0259,-0.0519,-0.0233,13010,13010,1,1
2024-12-12 10:33:12,0.0053,0.0013,1.0031,-0.0003,-0.1663,0.1261,0.0752,-0.3012,-0.0439,0.009,-0.0555,-0.0392,13010,13010,1,1
2024-12-12 10:33:12,-0.0077,-0.0036,0.9984,-0.0003,-0.2121,0.233,-0.2046,0.4399,-0.0337,0.0224,-0.03,0.0311,13003,13003,1,1
2024-12-12 10:33:12,-0.0077,-0.0019,0.9992,-0.0461,0.2307,0.2177,-0.1065,0.4396,-0.0477,0.0329,-0.0729,0.0516,13010,13010,1,1
2024-12-12 10:33:12,0.0045,-0.0004,1.0062,-0.0766,-0.0747,0.3093,-0.0223,-0.2586,-0.0497,0.0579,-0.0623,0.1093,13002,13003,1,1
2024-12-12 10:33:12,0.0014,-0.0011,0.9948,-0.0155,-0.1358,0.1414,-0.0648,-0.0788,-0.0503,0.0444,-0.057,0.0336,13010,13003,1,1
2024-12-12 10:33:12,0.0028,-0.0053,0.9979,0.0761,-0.0136,-0.0266,-0.3029,-0.1626,-0.0569,0.0384,-0.0876,0.0159,13010,13010,1,1
2024-12-12 10:33:12,-0.0021,-0.0038,0.9933,-0.1377,0.0475,-0.1334,-0.2198,0.1183,-0.0617,0.0434,-0.0897,0.0398,13010,13010,1,1
2024-12-12 10:33:12,0.0001,-0.0004,0.996,-0.0766,-0.0289,-0.0113,-0.0226,-0.0085,-0.0507,0.0449,-0.039,0.0402,13010,13010,1,1
2024-12-12 10:33:12,-0.0021,-0.0011,0.9999,-0.1682,0.0322,-0.1945,-0.0644,0.1175,-0.0456,0.0287,-0.0148,-0.0012,13003,13002,1,1
2024-12-12 10:33:12,-0.0006,0.0008,0.9989,-0.0003,-0.1816,-0.164,0.0475,0.0336,-0.0371,0.0235,-0.0106,-0.0025,13003,13003,1,1
2024-12-12 10:33:12,0.0001,-0.0021,1.004,0.1677,0.0475,0.0803,-0.1199,-0.0084,-0.0408,0.0073,-0.0344,-0.0338,13010,13010,1,1
2024-12-12 10:33:12,-0.0003,-0.0014,1.0004,0.1066,-0.0747,-0.164,-0.0784,0.0195,-0.0396,-0.005,-0.0387,-0.0469,13010,13010,1,1
2024-12-12 10:33:12,0.0097,0.0003,0.9987,0.015,-0.0747,0.004,0.0195,-0.5547,-0.0471,-0.0251,-0.0578,-0.0763,13010,13010,1,1
2024-12-12 10:33:13,-0.0001,0.0003,1.0043,-0.1682,0.0933,0.0192,0.0194,0.0055,-0.0643,-0.02,-0.0938,-0.0272,13003,13003,1,1
2024-12-12 10:33:13,-0.006,-0.0026,1.0009,0.0303,0.0933,0.0345,-0.1482,0.341,-0.0484,0.0028,-0.0366,0.0408,13010,13010,1,1
2024-12-12 10:33:13,0.0004,0.0042,0.9906,-0.0919,-0.0747,-0.0266,0.2456,-0.0226,-0.0369,0.0141,0.0002,0.0517,13010,13010,1,1
2024-12-12 10:33:13,0.0026,0.0008,1.0028,0.0303,0.1238,0.1108,0.0473,-0.1479,-0.0315,0.0397,0.0031,0.095,13010,13003,1,1
2024-12-12 10:33:13,0.0006,0.0045,1.0045,0.0913,-0.0594,-0.0571,0.2561,-0.0362,-0.0252,0.0401,-0.006,0.0624,13010,13010,1,1
2024-12-12 10:33:13,-0.0018,0.0008,1.0043,0.1219,-0.1052,0.0345,0.0473,0.103,-0.0181,0.0416,0.0005,0.0513,13010,13003,1,1
2024-12-12 10:33:13,-0.003,0.0011,1.016,0.0761,0.0016,0.1261,0.0605,0.1707,-0.038,0.0449,-0.0617,0.0526,13010,13010,1,1
2024-12-12 10:33:13,0.0021,0.0003,0.9962,0.0913,-0.0594,-0.1029,0.0196,-0.1208,-0.0282,0.0322,-0.0255,0.0153,13010,13010,1,1
2024-12-12 10:33:13,-0.0011,0.0038,1.0016,-0.0308,0.0322,-0.1182,0.215,0.0614,-0.0142,0.0099,0.0087,-0.0299,13010,13003,1,1
2024-12-12 10:33:13,-0.0064,0.0072,1.0023,-0.1529,0.2917,-0.0266,0.4102,0.3684,-0.0387,0.0426,-0.0661,0.0783,13010,13003,1,1
2024-12-12 10:33:13,-0.0035,0.003,1.0089,0.0303,0.0169,-0.1029,0.1718,0.1996,-0.0351,0.0517,-0.0394,0.0893,13010,13003,1,1
2024-12-12 10:33:13,-0.0052,-0.0026,1.0018,0.1371,0.0322,0.065,-0.1481,0.2988,-0.0268,0.0537,-0.0226,0.0854,13010,13011,1,1
2024-12-12 10:33:13,0.0026,-0.0048,1.0016,-0.0003,-0.0594,0.004,-0.2738,-0.1481,-0.0307,0.052,-0.0334,0.0504,13010,13010,1,1
2024-12-12 10:33:13,-0.0057,-0.0016,1.0004,-0.1377,0.1238,-0.1334,-0.0924,0.3272,-0.0754,0.0502,-0.1496,0.0512,13010,13010,1,1
2024-12-12 10:33:13,-0.0074,0.0016,0.9987,-0.0308,-0.0289,0.0956,0.0896,0.4258,-0.0582,0.0453,-0.0659,0.0529,13010,13010,1,1
2024-12-12 10:33:13,0.0045,-0.0028,1.0065,-0.0461,0.0016,-0.0571,-0.1613,-0.2585,-0.0523,0.0367,-0.0501,0.0258,13010,13003,1,1
2024-12-12 10:33:13,0.0033,0.0067,1.005,0.0761,0.1849,0.0192,0.3813,-0.1893,-0.0407,0.0429,-0.0048,0.0343,13010,13010,1,1
2024-12-12 10:33:13,-0.0038,-0.0001,0.9945,-0.0766,-0.0289,-0.0418,-0.0085,0.2166,-0.0427,0.046,-0.0364,0.0454,13010,13003,1,1
2024-12-12 10:33:13,-0.0033,-0.0009,0.9987,0.0761,-0.0136,-0.0571,-0.0505,0.1877,-0.042,0.0565,-0.0435,0.0691,13010,13010,1,1
2024-12-12 10:33:14,0.0043,-0.0033,1.0009,0.0608,0.1238,-0.1029,-0.1902,-0.246,-0.051,0.0447,-0.0714,0.018,13010,13003,1,1
2024-12-12 10:33:14,-0.0111,-0.0033,0.9962,-0.214,-0.1205,0.0345,-0.191,0.6374,-0.0687,0.0658,-0.1139,0.1011,13010,13010,1,1
2024-12-12 10:33:14,0.0033,0.0003,1.0092,0.0913,-0.0594,-0.1029,0.0193,-0.1885,-0.0581,0.0677,-0.0621,0.0722,13010,13003,1,1
2024-12-12 10:33:14,-0.0013,0.0001,1.0001,-0.0919,-0.09,0.0803,0.0055,0.0755,-0.0658,0.0485,-0.0773,0.023,13010,13003,1,1
2024-12-12 10:33:14,-0.0001,-0.0001,0.9977,-0.0155,-0.09,-0.164,-0.0085,0.0056,-0.0623,0.0538,-0.0628,0.0511,13010,13010,1,1
2024-12-12 10:33:14,0.0004,-0.0004,0.9999,-0.1224,0.0627,-0.1334,-0.0225,-0.0224,-0.051,0.0277,-0.0368,-0.0194,13010,13010,1,1
2024-12-12 10:33:14,-0.0028,0.0025,0.9982,-0.1071,-0.0442,0.1108,0.1457,0.1597,-0.0307,0.0277,0.0142,0.0035,13003,13003,1,1
2024-12-12 10:33:14,0.0016,0.0064,0.9999,-0.0766,-0.1358,0.065,0.3692,-0.0924,-0.0389,0.0155,-0.0191,-0.0125,13010,13010,1,1
2024-12-12 10:33:14,0.0026,0.0035,1.0045,-0.1377,-0.0594,-0.2098,0.2004,-0.1476,-0.0315,0.0246,-0.0156,0.0291,13010,13010,1,1
2024-12-12 10:33:14,-0.0023,0.004,1.0028,-0.0919,0.1696,0.0498,0.2287,0.1311,-0.0169,0.029,0.0204,0.0407,13010,13010,1,1
2024-12-12 10:33:14,-0.0003,-0.0048,1.0014,-0.0003,0.0016,-0.2098,-0.2739,0.0195,-0.0385,0.0269,-0.057,0.0352,13003,13003,1,1
2024-12-12 10:33:14,-0.0008,0.003,0.9931,0.1219,-0.0594,0.0803,0.1746,0.0479,-0.042,0.0403,-0.0503,0.0712,13003,13010,1,1
2024-12-12 10:33:14,-0.0038,-0.0001,0.9994,-0.0461,0.0475,-0.2861,-0.0085,0.2155,-0.0166,0.0312,0.0187,0.0293,13010,13003,1,1
2024-12-12 10:33:14,0.0006,-0.0041,0.995,-0.0613,0.1085,0.1108,-0.2335,-0.0366,-0.0176,0.0161,-0.0096,-0.0186,13010,13010,1,1
2024-12-12 10:33:14,0.0036,0.0035,1.0036,0.2135,0.1849,0.0498,0.2006,-0.2035,-0.0135,0.0229,-0.0077,0.0217,13010,13010,1,1
2024-12-12 10:33:14,-0.0006,-0.0028,0.9996,0.0608,0.0322,0.0803,-0.1624,0.0336,-0.0202,0.0079,-0.0371,-0.0155,13003,13010,1,1
2024-12-12 10:33:14,-0.0003,-0.0004,0.996,0.0455,0.0475,-0.0418,-0.0226,0.0196,-0.0403,0.0261,-0.0789,0.0469,13003,13003,1,1
2024-12-12 10:33:14,0.0001,-0.0011,0.9965,0.015,-0.151,0.1261,-0.0647,-0.0085,-0.0545,0.0403,-0.0949,0.0649,13010,13010,1,1
2024-12-12 10:33:14,-0.0047,0.0045,1.0057,0.0761,-0.0442,0.0803,0.2558,0.2698,-0.0642,0.0652,-0.0938,0.1222,13010,13010,1,1
2024-12-12 10:33:15,-0.003,0.0033,0.9889,-0.0155,-0.1816,0.2024,0.1895,0.1754,-0.0595,0.0678,-0.0503,0.0983,13010,13002,1,1
2024-12-12 10:33:15,-0.0055,-0.0014,1.0011,-0.0766,0.0627,0.233,-0.0783,0.313,-0.0661,0.0719,-0.0646,0.089,13010,13003,1,1
2024-12-12 10:33:15,-0.0011,-0.0023,1.0004,0.0455,0.0933,0.0498,-0.1343,0.0615,-0.078,0.0506,-0.1034,0.0236,13003,13003,1,1
2024-12-12 10:33:15,0.0097,-0.0048,1.0033,-0.0003,-0.1205,0.0498,-0.2733,-0.5521,-0.079,0.0403,-0.0879,-0.0081,13010,13010,1,1
2024-12-12 10:33:15,0.0033,0.0001,1.0048,-0.1377,-0.0289,0.0956,0.0055,-0.1894,-0.0664,0.0381,-0.0449,0.0131,13010,13010,1,1
2024-12-12 10:33:15,-0.0003,0.0025,0.9974,-0.0461,-0.0594,0.065,0.1458,0.0196,-0.0584,0.0245,-0.028,-0.0104,13010,13010,1,1
2024-12-12 10:33:15,-0.0074,-0.0016,1.005,-0.0003,-0.3037,0.0803,-0.0919,0.4231,-0.0541,0.0261,-0.0324,0.0123,13003,13010,1,1
2024-12-12 10:33:15,0.0006,-0.0026,1.0023,-0.0919,-0.0442,0.1261,-0.148,-0.0363,-0.0614,0.0187,-0.0619,-0.014,13003,13010,1,1
2024-12-12 10:33:15,0.0011,-0.0041,1.0036,-0.0003,-0.151,0.1261,-0.2315,-0.0641,-0.0681,0.0255,-0.0787,0.0263,13010,13010,1,1
2024-12-12 10:33:15,0.0023,-0.0028,0.9955,-0.1071,-0.0136,0.1108,-0.1631,-0.1349,-0.0602,0.016,-0.0538,0.0031,13010,13003,1,1
2024-12-12 10:33:15,0.0026,-0.0048,1.0006,-0.0155,-0.0747,-0.0724,-0.2741,-0.1482,-0.0813,-0.0042,-0.1228,-0.0447,13010,13010,1,1
2024-12-12 10:33:15,0.0016,0.0023,0.9979,-0.0766,0.078,-0.0876,0.1317,-0.0925,-0.0846,0.0308,-0.1006,0.0823,13010,13003,1,1
2024-12-12 10:33:15,-0.0011,-0.0023,1.0021,-0.0308,-0.09,0.0803,-0.1341,0.0614,-0.0798,0.0452,-0.0795,0.0877,13003,13003,1,1
2024-12-12 10:33:15,-0.0011,0.0047,0.994,-0.0308,0.0169,0.0498,0.2729,0.0619,-0.0648,0.0596,-0.0299,0.0937,13010,13010,1,1
2024-12-12 10:33:15,0.0016,-0.0028,1.0001,-0.0308,-0.0594,0.004,-0.1623,-0.0923,-0.0713,0.061,-0.066,0.0773,13010,13003,1,1
2024-12-12 10:33:15,-0.003,-0.0021,1.0018,-0.0308,-0.0594,0.0498,-0.1202,0.1731,-0.07,0.0724,-0.0591,0.0982,13003,13010,1,1
2024-12-12 10:33:15,0.0067,-0.0011,1.0004,-0.0461,-0.1663,-0.0876,-0.0644,-0.386,-0.0693,0.044,-0.0642,-0.0061,13010,13003,1,1
2024-12-12 10:33:15,0.0045,-0.0016,0.9962,-0.0308,-0.1663,0.1108,-0.0928,-0.2612,-0.0625,0.0468,-0.0458,0.0162,13010,13003,1,1
2024-12-12 10:33:15,0.0063,-0.0048,1.0045,-0.1224,-0.0594,0.065,-0.273,-0.3565,-0.0709,0.0373,-0.0731,-0.0032,13010,13010,1,1
2024-12-12 10:33:15,-0.0018,-0.0009,1.0043,0.1066,-0.2426,-0.1029,-0.0502,0.103,-0.0707,0.0439,-0.0627,0.0445,13010,13010,1,1
2024-12-12 10:33:16,0.0011,-0.0045,1.0023,0.0455,0.0475,-0.225,-0.2597,-0.0642,-0.0857,0.043,-0.1097,0.043,13010,13010,1,1
2024-12-12 10:33:16,-0.0038,0.0023,0.9899,-0.0919,-0.09,-0.0724,0.1327,0.2176,-0.0614,0.0312,-0.0309,0.0156,13010,13003,1,1
2024-12-12 10:33:16,0.005,0.0028,1.0018,-0.0003,0.0627,-0.0113,0.1591,-0.2877,-0.0562,0.007,-0.0366,-0.0502,13010,13010,1,1
2024-12-12 10:33:16,-0.0023,0.0008,0.9992,-0.0766,0.0475,-0.1792,0.0475,0.1316,-0.0454,0.0117,-0.0118,-0.0001,13010,13010,1,1
2024-12-12 10:33:16,-0.0016,0.003,0.9974,-0.2293,-0.0442,-0.0571,0.1738,0.0897,-0.0353,0.0114,-0.0048,0.0054,13010,13003,1,1
2024-12-12 10:33:16,0.0053,0.0003,1.0018,0.015,0.1543,-0.0724,0.0195,-0.3016,-0.0359,0.0007,-0.0191,-0.0269,13010,13010,1,1
2024-12-12 10:33:16,-0.0023,-0.0001,0.9865,-0.0003,-0.0747,-0.0266,-0.0086,0.1333,-0.0431,0.0021,-0.0431,0.0027,13010,13003,1,1
2024-12-12 10:33:16,0.0016,0.0013,1.0048,-0.0919,0.0016,0.2635,0.0751,-0.0919,-0.0449,0.0041,-0.0539,0.0071,13003,13003,1,1
2024-12-12 10:33:16,-0.0006,-0.0067,1.0043,-0.0766,0.0322,-0.1029,-0.3845,0.0334,-0.0542,0.0114,-0.0789,0.0262,13010,13010,1,1
2024-12-12 10:33:16,0.007,-0.0023,0.9984,-0.0613,0.0016,-0.2861,-0.1346,-0.4007,-0.0539,0.0354,-0.075,0.0751,13010,13003,1,1
2024-12-12 10:33:16,0.0009,-0.0004,0.9972,0.0608,-0.0442,0.0956,-0.0225,-0.0505,-0.0625,0.0337,-0.0799,0.0482,13010,13010,1,1
2024-12-12 10:33:16,0.0009,-0.0058,0.9972,0.0608,0.078,-0.164,-0.3311,-0.0505,-0.0712,0.0437,-0.0994,0.0632,13010,13010,1,1
2024-12-12 10:33:16,-0.0003,-0.0016,1.0021,0.2135,0.2612,-0.1487,-0.0922,0.0195,-0.0477,0.0434,-0.0294,0.049,13010,13010,1,1
2024-12-12 10:33:16,0.0033,0.0055,0.9916,-0.1224,0.0627,-0.0266,0.3159,-0.1919,-0.0459,0.0461,-0.0255,0.0438,13010,13010,1,1
2024-12-12 10:33:16,0.0004,0.0023,1.0028,-0.0003,-0.09,0.1566,0.131,-0.0223,-0.0363,0.0276,-0.0177,-0.0022,13010,13010,1,1
2024-12-12 10:33:16,0.0004,0.0045,0.9921,-0.1224,-0.1816,0.004,0.2594,-0.0226,-0.0294,0.0143,-0.0057,-0.019,13010,13010,1,1
2024-12-12 10:33:16,0.0023,0.003,0.996,0.1371,-0.2732,0.004,0.1741,-0.1349,-0.0218,0.0039,0.0097,-0.0301,13010,13002,1,1
2024-12-12 10:33:16,-0.0035,0.0006,0.9974,-0.1071,0.1696,-0.1487,0.0336,0.2019,-0.0105,0.001,0.0283,-0.0048,13010,13010,1,1
2024-12-12 10:33:16,-0.0028,-0.0001,1.0062,-0.0919,0.1543,-0.1945,-0.0084,0.1584,-0.014,0.0176,0.0004,0.0398,13010,13002,1,1
2024-12-12 10:33:17,0.0055,-0.0041,0.9884,-0.0613,-0.0442,-0.0876,-0.235,-0.3199,-0.013,0.0186,-0.0079,0.032,13010,13010,1,1
2024-12-12 10:33:17,0.0019,0.002,1.0006,-0.0766,-0.0747,0.0803,0.1173,-0.1063,-0.0202,0.0166,-0.0268,0.0181,13010,13010,1,1
2024-12-12 10:33:17,-0.0001,-0.005,0.9996,0.015,-0.1358,-0.1182,-0.2883,0.0056,-0.0242,0.0091,-0.0387,-0.0005,13003,13010,1,1
2024-12-12 10:33:17,-0.0006,-0.0082,0.9938,-0.0461,0.0016,-0.0113,-0.473,0.0338,-0.0371,-0.0008,-0.086,-0.0214,13010,13003,1,1
2024-12-12 10:33:17,-0.0033,-0.0067,1.0038,-0.0461,0.0169,-0.2098,-0.3847,0.1867,-0.0402,0.0187,-0.0741,0.0467,13010,13010,1,1
2024-12-12 10:33:17,0.0028,-0.0009,0.9909,-0.0003,-0.2274,-0.1792,-0.0509,-0.1638,-0.0537,0.0339,-0.0912,0.0862,13010,13010,1,1
2024-12-12 10:33:17,0.0011,-0.0026,1.0016,-0.0003,-0.0136,-0.0724,-0.1481,-0.0643,-0.0379,0.0146,-0.0344,0.0043,13010,13003,1,1
2024-12-12 10:33:17,-0.006,0.0011,0.9996,-0.214,-0.0594,-0.1029,0.0615,0.3414,-0.0551,0.0297,-0.0785,0.0476,13010,13010,1,1
2024-12-12 10:33:17,0.0036,-0.0028,1.0011,-0.0003,-0.151,0.0498,-0.1622,-0.204,-0.0603,0.0244,-0.0858,0.0141,13010,13010,1,1
2024-12-12 10:33:17,-0.005,0.0016,0.9984,0.1066,0.078,0.1261,0.0896,0.2858,-0.0373,0.0303,-0.0082,0.0439,13010,13010,1,1
2024-12-12 10:33:17,0.0036,-0.0004,0.9957,-0.0766,-0.0442,0.004,-0.0226,-0.2051,-0.0264,0.0065,-0.0016,-0.0221,13003,13010,1,1
2024-12-12 10:33:17,-0.0042,-0.0031,0.9982,-0.0461,-0.0594,0.0498,-0.1767,0.2438,-0.0402,0.0124,-0.0583,0.0219,13003,13010,1,1
2024-12-12 10:33:17,-0.006,-0.0001,1.0055,0.1219,0.1085,0.1872,-0.0084,0.3394,-0.0561,0.0091,-0.0965,0.0008,13010,13003,1,1
2024-12-12 10:33:17,0.0001,0.0028,1.0097,-0.0461,0.1696,0.0345,0.1579,-0.0083,-0.0481,0.0187,-0.0484,0.025,13010,13010,1,1
2024-12-12 10:33:17,0.0001,-0.0004,1.0033,0.1371,-0.3495,0.1261,-0.0224,-0.0084,-0.0439,0.0202,-0.0387,0.031,13010,13010,1,1
2024-12-12 10:33:17,-0.0045,0.0011,0.9977,0.015,0.0933,0.1261,0.0616,0.2579,-0.0391,0.0182,-0.0258,0.025,13010,13010,1,1
2024-12-12 10:33:17,0.0006,0.0052,0.9982,-0.0919,-0.0442,-0.2098,0.2998,-0.0365,-0.0126,-0.0053,0.0471,-0.0415,13010,13010,1,1
2024-12-12 10:33:17,-0.003,0.0074,1.0016,0.0761,-0.2579,0.1261,0.4245,0.1731,0.0081,-0.0052,0.0745,-0.0174,13003,13010,1,1
2024-12-12 10:33:17,-0.0021,-0.0063,1.006,0.0455,-0.0747,0.0345,-0.356,0.1168,-0.0047,0.0106,-0.0037,0.0431,13003,13003,1,1
2024-12-12 10:33:18,-0.0045,-0.006,0.9989,0.1829,0.0169,-0.1182,-0.3446,0.2576,-0.0071,0.027,-0.0229,0.0715,13010,13003,1,1
2024-12-12 10:33:18,0.0036,-0.0023,0.9948,-0.0919,-0.0442,-0.2861,-0.1351,-0.2053,-0.0067,0.0151,-0.0205,0.0056,13010,13010,1,1
2024-12-12 10:33:18,-0.0013,0.0023,1.0011,-0.0461,-0.0289,0.065,0.1313,0.0754,-0.0134,0.0228,-0.0303,0.0293,13010,13003,1,1
2024-12-12 10:33:18,-0.0033,-0.0001,1.0018,-0.0461,0.078,-0.164,-0.0085,0.1871,-0.0249,-0.0039,-0.058,-0.0433,13010,13010,1,1
2024-12-12 10:33:18,0.0031,-0.0021,1.0104,0.0608,0.2001,-0.1945,-0.1191,-0.1745,-0.0172,0.0053,-0.0218,0.0104,13010,13003,1,1
2024-12-12 10:33:18,-0.0013,-0.0048,1.0087,-0.0461,0.0933,-0.225,-0.2719,0.0749,-0.0298,-0.0097,-0.0594,-0.0321,13010,13003,1,1
2024-12-12 10:33:18,0.007,0.003,1.0028,0.0608,-0.2732,0.1566,0.1729,-0.399,-0.0353,-0.026,-0.0518,-0.0662,13010,13010,1,1
2024-12-12 10:33:18,-0.0021,0.0001,0.9987,-0.1224,-0.151,-0.0571,0.0055,0.1176,-0.0214,-0.0079,0.0004,0.0087,13010,13003,1,1
2024-12-12 10:33:18,-0.0023,-0.0004,0.9982,0.1219,0.0169,0.2635,-0.0225,0.1317,-0.0184,0.0027,-0.0085,0.0312,13010,13003,1,1
2024-12-12 10:33:18,0.0038,-0.0001,0.9977,0.1371,-0.09,-0.0113,-0.0085,-0.2187,-0.0102,0.02,0.0047,0.0625,13010,13003,1,1
2024-12-12 10:33:18,0.008,-0.0043,0.9935,-0.0613,0.0169,-0.0724,-0.2479,-0.459,-0.0315,0.0193,-0.0703,0.0288,13010,13010,1,1
2024-12-12 10:33:18,0.0048,-0.0063,1.0111,0.0761,-0.0594,0.065,-0.3542,-0.2712,-0.0421,0.0325,-0.0705,0.0444,13010,13010,1,1
2024-12-12 10:33:18,0.0014,-0.0021,1.0006,-0.1377,0.2765,-0.1182,-0.1203,-0.0783,-0.0447,0.0468,-0.0629,0.0735,13010,13003,1,1
2024-12-12 10:33:18,-0.0028,0.0047,0.9896,-0.0461,0.1085,-0.0113,0.2741,0.1611,-0.0537,0.0489,-0.0617,0.0661,13003,13003,1,1
2024-12-12 10:33:18,-0.0018,-0.0023,0.9945,-0.0766,-0.0747,0.1261,-0.1351,0.1041,-0.0553,0.071,-0.0567,0.1193,13010,13010,1,1
2024-12-12 10:33:18,-0.0023,-0.0065,0.9945,-0.0461,0.0322,-0.0113,-0.3742,0.1322,-0.053,0.078,-0.0539,0.1116,13010,13010,1,1
2024-12-12 10:33:18,0.0026,-0.0021,1.0028,0.1066,-0.1663,-0.0113,-0.12,-0.1479,-0.056,0.104,-0.0681,0.1577,13010,13010,1,1
2024-12-12 10:33:18,0.0009,-0.005,1.0043,0.1371,-0.1052,-0.1334,-0.287,-0.0502,-0.0499,0.0948,-0.0544,0.0913,13010,13010,1,1
2024-12-12 10:33:18,-0.0006,0.0045,0.9982,-0.1835,0.078,-0.0724,0.2578,0.0336,-0.0397,0.1132,-0.0137,0.1218,13010,13010,1,1
2024-12-12 10:33:19,-0.0028,-0.0031,1.0016,-0.0766,0.078,0.0192,-0.1761,0.1592,-0.0389,0.095,-0.0188,0.0498,13010,13010,1,1
2024-12-12 10:33:19,0.006,-0.0011,0.9996,0.1982,-0.1358,-0.0876,-0.0645,-0.3443,-0.0492,0.0782,-0.0589,0.0246,13010,13010,1,1
2024-12-12 10:33:19,-0.0001,0.0008,1.0033,-0.0003,0.0322,-0.1792,0.0473,0.0055,-0.0436,0.0511,-0.0272,-0.0308,13010,13010,1,1
2024-12-12 10:33:19,-0.003,0.0042,0.9974,-0.0155,-0.319,0.0803,0.2439,0.1739,-0.0326,0.0313,0.0013,-0.0345,13003,13003,1,1
2024-12-12 10:33:19,0.005,-0.0011,1.0001,0.0303,-0.1663,-0.2403,-0.0644,-0.2881,-0.0478,0.0481,-0.0512,0.0389,13003,13010,1,1
2024-12-12 10:33:19,0.0001,-0.0033,0.9967,0.0608,-0.0136,-0.0571,-0.191,-0.0084,-0.051,0.0552,-0.0505,0.062,13010,13010,1,1
2024-12-12 10:33:19,-0.0011,-0.0011,1.0033,-0.0003,0.1696,-0.1945,-0.0642,0.0613,-0.068,0.0381,-0.0977,0.0132,13010,13010,1,1
2024-12-12 10:33:19,-0.0062,0.0001,0.9916,0.0303,-0.0442,-0.0724,0.0056,0.3583,-0.0728,0.0482,-0.0901,0.0596,13010,13010,1,1
2024-12-12 10:33:19,0.0006,-0.0006,0.9992,-0.0003,-0.1052,-0.0418,-0.0365,-0.0364,-0.0664,0.0437,-0.0617,0.038,13010,13002,1,1
2024-12-12 10:33:19,0.0009,0.0025,0.9974,-0.0003,-0.0136,-0.0571,0.1458,-0.0505,-0.0455,0.0567,0.0022,0.0667,13010,13003,1,1
2024-12-12 10:33:19,-0.0025,0.0028,1.0004,-0.0155,-0.0747,-0.1945,0.1593,0.1454,-0.0367,0.0495,0.0027,0.0512,13010,13010,1,1
2024-12-12 10:33:19,-0.0035,-0.0019,1.0018,-0.0613,0.1391,-0.0724,-0.1062,0.201,-0.0562,0.0418,-0.0606,0.0329,13010,13010,1,1
2024-12-12 10:33:19,0.0041,0.0016,0.9972,-0.0613,-0.1816,-0.1182,0.0897,-0.2329,-0.0626,0.0248,-0.0712,-0.0152,13010,13010,1,1
